"","SubjectID_right_unique","Trial_right","SubjectID_left_unique","Trial_left","SubjectID_left","SubjectID_right","Gender_left","Gender_right","Age_left","Age_right","Image_1","Image_2","Prop_red_image_1","Prop_red_image_2","Prop_yellow_image_1","Prop_yellow_image_2","Prop_green_image_1","Prop_green_image_2","Prop_blue_image_1","Prop_blue_image_2","Response_left","Response_right","Joint_left","Joint_right","Correct_left","Correct_right","Correct_joint","RT_left","RT_right","RT_joint_left","RT_joint_right","Round","Block","group_id","diff","response_right_dummy","response_left_dummy","response_joint_dummy","chosen_leader","Leader_gender","Follower_gender","leader_behavior","Sensitivity_roll_left","Sensitivity_roll_right","skill_dif_roll","skill_dif_roll_c","Response_left_abs","Response_right_abs","z_Response_left_abs","z_Response_right_abs","conf_dif","conf_dif_c"
"1","1_1",11,"3_1",11,"3",1,"Male","Male",24,23,"Stim\r11y26g25b38.jpeg","Stim\r15y16g12b03.jpeg",11,15,26,16,25,12,38,3,3,-2,0,-1,1,0,0,2.409,1.473,0,4.129,1,"rød","3_1",4,0,1,0,"Right_lead","Male","Male","stick",0.190844096482105,0.174506392202533,0.914392404162714,-0.0856075958372857,3,2,0.75727357564213,0.316106376724322,0.666666666666667,-0.333333333333333
"2","1_1",12,"3_1",12,"3",1,"Male","Male",24,23,"Stim\r11y14g08b23.jpeg","Stim\r08y23g10b29.jpeg",11,8,14,23,8,10,23,29,-2,1,0,-1,1,0,1,2.381,1.775,0,4.168,1,"rød","3_1",-3,1,0,0,"Right_lead","Male","Male","surrender",0.207945220213955,0.17864612795225,0.859101871966284,-0.140898128033716,2,1,-0.267273026697222,-1.29954843764443,0.5,-0.5
"3","1_1",13,"3_1",13,"3",1,"Male","Male",24,23,"Stim\r07y02g03b06.jpeg","Stim\r14y12g04b29.jpeg",7,14,2,12,3,4,6,29,-2,2,1,0,0,1,1,1.989,2.701,4.514,0,1,"rød","3_1",7,1,0,1,"Left_lead","Male","Male","surrender",0.191763087160764,0.184561119309545,1.03902212924457,0.0390221292445669,2,2,-0.267273026697222,0.316106376724322,1,0
"4","1_1",15,"3_1",15,"3",1,"Male","Male",24,23,"Stim\r13y33g08b23.jpeg","Stim\r11y13g22b35.jpeg",13,11,33,13,8,22,23,35,2,-1,1,0,0,1,0,1.078,1.825,1.666,0,1,"rød","3_1",-2,0,1,1,"Left_lead","Male","Male","stick",0.210112072425785,0.206785278894532,1.01608815457772,0.0160881545777241,2,1,-0.267273026697222,-1.29954843764443,2,1
"5","1_1",16,"3_1",16,"3",1,"Male","Male",24,23,"Stim\r07y14g27b22.jpeg","Stim\r09y06g26b32.jpeg",7,9,14,6,27,26,22,32,2,-2,0,-1,1,0,0,1.699,1.592,0,2.427,1,"rød","3_1",2,0,1,0,"Right_lead","Male","Male","stick",0.196985373217735,0.187998688093563,0.954378921757614,-0.0456210782423865,2,2,-0.267273026697222,0.316106376724322,1,0
"6","1_1",17,"3_1",17,"3",1,"Male","Male",24,23,"Stim\r08y09g09b11.jpeg","Stim\r09y06g26b32.jpeg",8,9,9,6,9,26,11,32,2,-2,-1,0,1,0,0,1.457,1.707,1.951,0,1,"rød","3_1",1,0,1,0,"Left_lead","Male","Male","surrender",0.201444147791859,0.193706667072123,1.0399443180593,0.0399443180593011,2,2,-0.267273026697222,0.316106376724322,1,0
"7","1_1",19,"3_1",19,"3",1,"Male","Male",24,23,"Stim\r14y12g04b29.jpeg","Stim\r13y33g08b23.jpeg",14,13,12,33,4,8,29,23,2,-2,-1,0,0,1,1,1.322,1.768,3.525,0,1,"rød","3_1",-1,0,1,0,"Left_lead","Male","Male","surrender",0.205713448587695,0.218023458275269,0.943538141331417,-0.0564618586685833,2,2,-0.267273026697222,0.316106376724322,1,0
"8","1_1",2,"3_1",2,"3",1,"Male","Male",24,23,"Stim\r16y21g04b04.jpeg","Stim\r15y05g12b10.jpeg",16,15,21,5,4,12,4,10,3,-2,1,0,0,1,0,1.888,1.867,6.121,0,1,"rød","3_1",-1,0,1,1,"Left_lead","Male","Male","stick",NA,NA,NA,NA,3,2,0.75727357564213,0.316106376724322,1.5,0.5
"9","1_1",21,"3_1",21,"3",1,"Male","Male",24,23,"Stim\r22y35g09b11.jpeg","Stim\r18y19g14b27.jpeg",22,18,35,19,9,14,11,27,-2,2,0,1,1,0,0,1.011,1.543,0,2.397,1,"rød","3_1",-4,1,0,1,"Right_lead","Male","Male","stick",0.225618805965216,0.226275585570175,1.00291101445267,0.0029110144526705,2,2,-0.267273026697222,0.316106376724322,1,0
"10","1_1",22,"3_1",22,"3",1,"Male","Male",24,23,"Stim\r21y03g15b37.jpeg","Stim\r18y13g28b06.jpeg",21,18,3,13,15,28,37,6,3,-2,1,0,0,1,0,1.607,1.42,1.824,0,1,"rød","3_1",-3,0,1,1,"Left_lead","Male","Male","stick",0.216996088159063,0.233816053694917,0.928063256264684,-0.0719367437353156,3,2,0.75727357564213,0.316106376724322,1.5,0.5
"11","1_1",23,"3_1",23,"3",1,"Male","Male",24,23,"Stim\r18y19g14b27.jpeg","Stim\r19y10g06b15.jpeg",18,19,19,10,14,6,27,15,1,-2,-1,0,1,0,0,1.577,0.94,1.044,0,1,"rød","3_1",1,0,1,0,"Left_lead","Male","Male","surrender",0.230417268320538,0.238095814893221,0.967750182521576,-0.0322498174784239,1,2,-1.29181962903657,0.316106376724322,0.5,-0.5
"12","1_1",24,"3_1",24,"3",1,"Male","Male",24,23,"Stim\r14y08g21b39.jpeg","Stim\r12y12g14b26.jpeg",14,12,8,12,21,14,39,26,2,-2,-1,0,0,1,1,2.765,1.178,1.33,0,1,"rød","3_1",-2,0,1,0,"Left_lead","Male","Male","surrender",0.231151617317661,0.237057402238952,0.975087110271554,-0.0249128897284464,2,2,-0.267273026697222,0.316106376724322,1,0
"13","1_1",25,"3_1",25,"3",1,"Male","Male",24,23,"Stim\r03y03g02b05.jpeg","Stim\r04y28g27b06.jpeg",3,4,3,28,2,27,5,6,4,-2,1,0,1,0,1,1.327,1.206,1.14,0,1,"rød","3_1",1,0,1,1,"Left_lead","Male","Male","stick",0.228692888341036,0.243624360629659,0.938711086814012,-0.0612889131859881,4,2,1.78182017798148,0.316106376724322,2,1
"14","1_1",27,"3_1",27,"3",1,"Male","Male",24,23,"Stim\r12y09g30b18.jpeg","Stim\r20y14g02b19.jpeg",12,20,9,14,30,2,18,19,3,-2,0,1,1,0,1,1.325,1.271,0,1.764,1,"blå","3_1",1,0,1,1,"Right_lead","Male","Male","surrender",0.204009054366156,0.235892916847543,1.15628650689279,0.156286506892786,3,2,0.75727357564213,0.316106376724322,0.666666666666667,-0.333333333333333
"15","1_1",29,"3_1",29,"3",1,"Male","Male",24,23,"Stim\r12y07g07b17.jpeg","Stim\r09y17g32b21.jpeg",12,9,7,17,7,32,17,21,-2,3,1,0,0,1,1,2.47,3.249,1.474,0,1,"blå","3_1",4,1,0,1,"Left_lead","Male","Male","surrender",0.202837675607932,0.221844668497329,0.914322967425175,-0.0856770325748254,2,3,-0.267273026697222,1.93176119109308,0.666666666666667,-0.333333333333333
"16","1_1",33,"3_1",33,"3",1,"Male","Male",24,23,"Stim\r21y31g06b08.jpeg","Stim\r22y35g09b11.jpeg",21,22,31,35,6,9,8,11,4,-2,1,0,1,0,1,1.193,1.087,1.563,0,1,"blå","3_1",3,0,1,1,"Left_lead","Male","Male","stick",0.205844129538261,0.207167920142541,0.993610059881042,-0.00638994011895844,4,2,1.78182017798148,0.316106376724322,2,1
"17","1_1",34,"3_1",34,"3",1,"Male","Male",24,23,"Stim\r13y33g08b23.jpeg","Stim\r17y22g16b15.jpeg",13,17,33,22,8,16,23,15,-1,2,1,0,1,0,0,2.316,3.728,1.064,0,1,"blå","3_1",-8,1,0,1,"Left_lead","Male","Male","surrender",0.207715616063826,0.172703462698677,1.20272988634997,0.20272988634997,1,2,-1.29181962903657,0.316106376724322,0.5,-0.5
"18","1_1",35,"3_1",35,"3",1,"Male","Male",24,23,"Stim\r11y10g06b19.jpeg","Stim\r09y17g32b21.jpeg",11,9,10,17,6,32,19,21,4,-2,1,0,1,0,1,1.103,0.949,1.025,0,1,"blå","3_1",2,0,1,1,"Left_lead","Male","Male","stick",0.212312153525641,0.132880812204434,1.59776381558388,0.597763815583876,4,2,1.78182017798148,0.316106376724322,2,1
"19","1_1",36,"3_1",36,"3",1,"Male","Male",24,23,"Stim\r10y02g36b05.jpeg","Stim\r21y31g06b08.jpeg",10,21,2,31,36,6,5,8,2,-2,-1,0,1,0,0,1.329,1.975,3.581,0,1,"blå","3_1",3,0,1,0,"Left_lead","Male","Male","surrender",0.203453805314691,0.134009158756068,1.51820821205982,0.518208212059823,2,2,-0.267273026697222,0.316106376724322,1,0
"20","1_1",37,"3_1",37,"3",1,"Male","Male",24,23,"Stim\r09y06g26b32.jpeg","Stim\r03y11g01b26.jpeg",9,3,6,11,26,1,32,26,3,-2,1,0,0,1,0,1.549,2.378,1.316,0,1,"blå","3_1",-6,0,1,1,"Left_lead","Male","Male","stick",0.171881532738348,0.156003985520573,1.10177654862338,0.101776548623376,3,2,0.75727357564213,0.316106376724322,1.5,0.5
"21","1_1",41,"3_1",41,"3",1,"Male","Male",24,23,"Stim\r09y17g32b21.jpeg","Stim\r20y14g02b19.jpeg",9,20,17,14,32,2,21,19,-3,1,-1,0,1,0,1,1.293,1.823,1.035,0,1,"blå","3_1",-2,1,0,0,"Left_lead","Male","Male","stick",0.16041068011356,0.148679944301415,1.07889924809471,0.0788992480947099,3,1,0.75727357564213,-1.29954843764443,3,2
"22","1_1",42,"3_1",42,"3",1,"Male","Male",24,23,"Stim\r03y06g12b09.jpeg","Stim\r16y09g06b10.jpeg",3,16,6,9,12,6,9,10,-1,3,0,-1,0,1,0,1.07,1.38,0,5.163,1,"blå","3_1",1,1,0,0,"Right_lead","Male","Male","surrender",0.156769166136227,0.146950023354464,0.937365599219744,-0.0626344007802561,1,3,-1.29181962903657,1.93176119109308,3,2
"23","1_1",43,"3_1",43,"3",1,"Male","Male",24,23,"Stim\r10y27g22b14.jpeg","Stim\r22y35g09b11.jpeg",10,22,27,35,22,9,14,11,2,-2,0,-1,0,1,1,1.15,2.212,0,4.827,1,"blå","3_1",-3,0,1,0,"Right_lead","Male","Male","stick",0.154599350337628,0.149880039784135,0.969473930238474,-0.0305260697615258,2,2,-0.267273026697222,0.316106376724322,1,0
"24","1_1",45,"3_1",45,"3",1,"Male","Male",24,23,"Stim\r10y03g03b07.jpeg","Stim\r08y09g09b11.jpeg",10,8,3,9,3,9,7,11,-1,2,0,1,0,1,1,2.094,1.491,0,2.682,1,"blå","3_1",4,1,0,1,"Right_lead","Male","Male","stick",0.166318607100154,0.175315971674435,1.05409716165349,0.054097161653494,1,2,-1.29181962903657,0.316106376724322,2,1
"25","1_1",46,"3_1",46,"3",1,"Male","Male",24,23,"Stim\r14y08g21b39.jpeg","Stim\r05y28g23b30.jpeg",14,5,8,28,21,23,39,30,2,-3,0,-1,0,1,1,1.401,1.326,0,2.181,1,"blå","3_1",-9,0,1,0,"Right_lead","Male","Male","stick",0.166799403637498,0.190404582324641,1.14151836380928,0.141518363809284,2,3,-0.267273026697222,1.93176119109308,1.5,0.5
"26","1_1",47,"3_1",47,"3",1,"Male","Male",24,23,"Stim\r12y07g16b25.jpeg","Stim\r14y12g04b29.jpeg",12,14,7,12,16,4,25,29,4,-2,0,1,1,0,1,1.249,3.545,0,1.554,1,"blå","3_1",4,0,1,1,"Right_lead","Male","Male","surrender",0.174530005782713,0.185262497727863,1.06149367781785,0.0614936778178521,4,2,1.78182017798148,0.316106376724322,0.5,-0.5
"27","1_1",49,"3_1",49,"3",1,"Male","Male",24,23,"Stim\r16y09g06b10.jpeg","Stim\r21y31g06b08.jpeg",16,21,9,31,6,6,10,8,1,-2,-1,0,0,1,1,0.987,1.214,1.848,0,1,"blå","3_1",-2,0,1,0,"Left_lead","Male","Male","surrender",0.171638200913802,0.200162517867585,0.857494213913452,-0.142505786086548,1,2,-1.29181962903657,0.316106376724322,0.5,-0.5
"28","1_1",5,"3_1",5,"3",1,"Male","Male",24,23,"Stim\r20y14g02b19.jpeg","Stim\r21y01g04b27.jpeg",20,21,14,1,2,4,19,27,2,-1,0,-1,1,0,0,2.142,1.872,0,7.432,1,"rød","3_1",1,0,1,0,"Right_lead","Male","Male","stick",NA,NA,NA,NA,2,1,-0.267273026697222,-1.29954843764443,0.5,-0.5
"29","1_1",52,"3_1",52,"3",1,"Male","Male",24,23,"Stim\r06y14g31b25.jpeg","Stim\r09y15g18b07.jpeg",6,9,14,15,31,18,25,7,3,-1,1,0,1,0,1,1.654,2.367,1,0,1,"gul","3_1",1,0,1,1,"Left_lead","Male","Male","stick",0.15489435095952,0.210952659312138,0.73426119141892,-0.26573880858108,3,1,0.75727357564213,-1.29954843764443,3,2
"30","1_1",54,"3_1",54,"3",1,"Male","Male",24,23,"Stim\r06y19g29b08.jpeg","Stim\r22y23g20b06.jpeg",6,22,19,23,29,20,8,6,2,-3,-1,0,1,0,0,1.066,1.379,1.032,0,1,"gul","3_1",4,0,1,0,"Left_lead","Male","Male","surrender",0.173248817690233,0.196867971103539,0.880025413575863,-0.119974586424137,2,3,-0.267273026697222,1.93176119109308,0.666666666666667,-0.333333333333333
"31","1_1",59,"3_1",59,"3",1,"Male","Male",24,23,"Stim\r08y23g10b29.jpeg","Stim\r07y14g27b22.jpeg",8,7,23,14,10,27,29,22,2,-1,0,1,0,1,0,1.37,1.299,0,3.06,1,"gul","3_1",-9,0,1,1,"Right_lead","Male","Male","surrender",0.183493412701155,0.191608036491725,1.04422297057489,0.0442229705748938,2,1,-0.267273026697222,-1.29954843764443,0.5,-0.5
"32","1_1",62,"3_1",62,"3",1,"Male","Male",24,23,"Stim\r09y15g18b07.jpeg","Stim\r12y07g07b17.jpeg",9,12,15,7,18,7,7,17,-2,2,0,1,1,0,0,1.208,2.054,0,4.292,1,"gul","3_1",-8,1,0,1,"Right_lead","Male","Male","stick",0.195528047405166,0.191959556021659,0.981749465455907,-0.0182505345440928,2,2,-0.267273026697222,0.316106376724322,1,0
"33","1_1",63,"3_1",63,"3",1,"Male","Male",24,23,"Stim\r19y10g06b15.jpeg","Stim\r14y08g21b39.jpeg",19,14,10,8,6,21,15,39,-1,1,0,-1,1,0,1,1.079,1.874,0,3.743,1,"gul","3_1",-2,1,0,0,"Right_lead","Male","Male","surrender",0.199239818793985,0.188591419040223,0.946554861281155,-0.0534451387188446,1,1,-1.29181962903657,-1.29954843764443,1,0
"34","1_1",68,"3_1",68,"3",1,"Male","Male",24,23,"Stim\r04y39g24b15.jpeg","Stim\r13y33g08b23.jpeg",4,13,39,33,24,8,15,23,-4,3,-1,0,1,0,1,1.042,1.554,4.111,0,1,"gul","3_1",-6,1,0,0,"Left_lead","Male","Male","stick",0.230304031978158,0.221824002131817,1.03822863966408,0.0382286396640785,4,3,1.78182017798148,1.93176119109308,1.33333333333333,0.333333333333333
"35","1_1",7,"3_1",7,"3",1,"Male","Male",24,23,"Stim\r09y15g18b07.jpeg","Stim\r06y36g16b14.jpeg",9,6,15,36,18,16,7,14,-2,2,0,-1,1,0,1,1.693,2.856,0,4.031,1,"rød","3_1",-3,1,0,0,"Right_lead","Male","Male","surrender",NA,NA,NA,NA,2,2,-0.267273026697222,0.316106376724322,1,0
"36","1_1",71,"3_1",71,"3",1,"Male","Male",24,23,"Stim\r09y02g05b02.jpeg","Stim\r03y06g12b09.jpeg",9,3,2,6,5,12,2,9,-1,1,1,0,0,1,1,1.305,1.334,1.346,0,1,"gul","3_1",4,1,0,1,"Left_lead","Male","Male","surrender",0.24086213270283,0.191705119604709,1.25641992868778,0.256419928687776,1,1,-1.29181962903657,-1.29954843764443,1,0
"37","1_1",74,"3_1",74,"3",1,"Male","Male",24,23,"Stim\r11y10g06b19.jpeg","Stim\r05y09g02b34.jpeg",11,5,10,9,6,2,19,34,-2,1,-1,0,1,0,1,1.349,1.844,1.659,0,1,"grøn","3_1",-4,1,0,0,"Left_lead","Male","Male","stick",0.244001368108592,0.227772466773002,1.07125049645164,0.0712504964516352,2,1,-0.267273026697222,-1.29954843764443,2,1
"38","1_1",8,"3_1",8,"3",1,"Male","Male",24,23,"Stim\r08y23g10b29.jpeg","Stim\r10y02g36b05.jpeg",8,10,23,2,10,36,29,5,2,-1,-1,0,1,0,0,2.192,2.055,1.961,0,1,"rød","3_1",2,0,1,0,"Left_lead","Male","Male","surrender",NA,NA,NA,NA,2,1,-0.267273026697222,-1.29954843764443,2,1
"39","1_1",80,"3_1",80,"3",1,"Male","Male",24,23,"Stim\r20y14g02b19.jpeg","Stim\r07y02g03b06.jpeg",20,7,14,2,2,3,19,6,-1,2,0,1,0,1,1,0.946,1.392,0,3.265,1,"grøn","3_1",1,1,0,1,"Right_lead","Male","Male","stick",0.208213427358455,0.208740846767746,1.00253307107031,0.0025330710703062,1,2,-1.29181962903657,0.316106376724322,2,1
"40","1_1",85,"3_1",85,"3",1,"Male","Male",24,23,"Stim\r09y15g18b07.jpeg","Stim\r03y06g12b09.jpeg",9,3,15,6,18,12,7,9,-4,1,0,-1,1,0,1,1.008,0.854,0,1.531,1,"grøn","3_1",-6,1,0,0,"Right_lead","Male","Male","surrender",0.203043839758135,0.193231553805581,0.951674052439895,-0.0483259475601051,4,1,1.78182017798148,-1.29954843764443,0.25,-0.75
"41","1_1",87,"3_1",87,"3",1,"Male","Male",24,23,"Stim\r15y05g12b10.jpeg","Stim\r08y23g10b29.jpeg",15,8,5,23,12,10,10,29,-3,2,-1,0,1,0,1,1.011,1.223,1.38,0,1,"grøn","3_1",-2,1,0,0,"Left_lead","Male","Male","stick",0.233971457557894,0.219130654637666,1.06772581839254,0.0677258183925356,3,2,0.75727357564213,0.316106376724322,1.5,0.5
"42","1_1",88,"3_1",88,"3",1,"Male","Male",24,23,"Stim\r19y10g06b15.jpeg","Stim\r10y13g07b36.jpeg",19,10,10,13,6,7,15,36,-1,2,0,1,0,1,1,1.203,1.201,0,3.777,1,"grøn","3_1",1,1,0,1,"Right_lead","Male","Male","stick",0.230527732560451,0.217384952609448,0.942988291234953,-0.0570117087650467,1,2,-1.29181962903657,0.316106376724322,2,1
"43","1_1",89,"3_1",89,"3",1,"Male","Male",24,23,"Stim\r13y33g08b23.jpeg","Stim\r06y36g16b14.jpeg",13,6,33,36,8,16,23,14,-1,1,0,-1,0,1,0,2.091,2.021,0,3.893,1,"grøn","3_1",8,1,0,0,"Right_lead","Male","Male","surrender",0.231247446602599,0.233039306320703,1.00774866812339,0.00774866812338626,1,1,-1.29181962903657,-1.29954843764443,1,0
"44","1_1",90,"3_1",90,"3",1,"Male","Male",24,23,"Stim\r16y21g04b04.jpeg","Stim\r11y10g06b19.jpeg",16,11,21,10,4,6,4,19,-2,2,0,-1,0,1,0,1.27,1.25,0,3.656,1,"grøn","3_1",2,1,0,0,"Right_lead","Male","Male","surrender",0.232395371329769,0.244040232104723,1.05010797206641,0.0501079720664055,2,2,-0.267273026697222,0.316106376724322,1,0
"45","1_1",95,"3_1",95,"3",1,"Male","Male",24,23,"Stim\r07y06g08b05.jpeg","Stim\r16y09g06b10.jpeg",7,16,6,9,8,6,5,10,-4,1,-1,0,1,0,1,1.435,2.048,0.868,0,1,"grøn","3_1",-2,1,0,0,"Left_lead","Male","Male","stick",0.229724381760173,0.234654839416451,0.9789884680472,-0.0210115319528003,4,1,1.78182017798148,-1.29954843764443,4,3
"46","1_1",97,"3_1",97,"3",1,"Male","Male",24,23,"Stim\r02y19g24b04.jpeg","Stim\r10y27g22b14.jpeg",2,10,19,27,24,22,4,14,-2,1,0,-1,1,0,1,1.173,1.483,0,3.596,1,"grøn","3_1",-2,1,0,0,"Right_lead","Male","Male","surrender",NA,NA,NA,NA,2,1,-0.267273026697222,-1.29954843764443,0.5,-0.5
"47","1_2",13,"4_2",13,"4",1,"Female","Male",23,23,"Stim\r05y40g33b16.jpeg","Stim\r04y16g13b13.jpeg",5,4,40,16,33,13,16,13,2,-1,1,0,0,1,0,1.47,2.899,3.892,0,2,"rød","4_1",-1,0,1,1,"Left_lead","Female","Male","stick",0.196617526417829,0.189894691345098,1.03540296479649,0.0354029647964909,2,1,-0.0770991079443883,-2.16887067387615,2,1
"48","1_2",15,"4_2",15,"4",1,"Female","Male",23,23,"Stim\r11y14g08b23.jpeg","Stim\r09y15g18b07.jpeg",11,9,14,15,8,18,23,7,-2,2,-1,0,1,0,1,1.539,2.302,3.311,0,2,"rød","4_1",-2,1,0,0,"Left_lead","Female","Male","stick",0.218215740836279,0.214785201003779,1.01597195624497,0.0159719562449725,2,2,-0.0770991079443883,-0.619677335393187,1,0
"49","1_2",22,"4_2",22,"4",1,"Female","Male",23,23,"Stim\r20y04g39b23.jpeg","Stim\r14y10g15b15.jpeg",20,14,4,10,39,15,23,15,-1,3,0,1,1,0,0,1.342,1.971,0,2.794,2,"rød","4_1",-6,1,0,1,"Right_lead","Male","Female","stick",0.225841184292728,0.214367660182541,0.94919649334058,-0.0508035066594205,1,3,-1.04083795724924,0.92951600308978,3,2
"50","1_2",28,"4_2",28,"4",1,"Female","Male",23,23,"Stim\r10y07g11b10.jpeg","Stim\r10y03g03b07.jpeg",10,10,7,3,11,3,10,7,-2,3,1,0,1,0,0,1.933,2.262,3.532,0,2,"blå","4_1",-3,1,0,1,"Left_lead","Female","Male","surrender",0.220102461604016,0.181595917028752,1.21204521117712,0.212045211177117,2,3,-0.0770991079443883,0.92951600308978,0.666666666666667,-0.333333333333333
"51","1_2",3,"4_2",3,"4",1,"Female","Male",23,23,"Stim\r21y31g06b08.jpeg","Stim\r20y14g02b19.jpeg",21,20,31,14,6,2,8,19,3,-3,0,1,0,1,0,1.192,3.086,0,3.017,2,"rød","4_1",-1,0,1,1,"Right_lead","Male","Female","surrender",NA,NA,NA,NA,3,3,0.886639741360465,0.92951600308978,1,0
"52","1_2",36,"4_2",36,"4",1,"Female","Male",23,23,"Stim\r21y01g04b27.jpeg","Stim\r15y17g24b30.jpeg",21,15,1,17,4,24,27,30,1,-3,-1,0,1,0,0,1.821,1.85,5.512,0,2,"blå","4_1",3,0,1,0,"Left_lead","Female","Male","surrender",0.181338752603958,0.153496121484967,1.18138980222844,0.181389802228441,1,3,-1.04083795724924,0.92951600308978,0.333333333333333,-0.666666666666667
"53","1_2",38,"4_2",38,"4",1,"Female","Male",23,23,"Stim\r13y33g08b23.jpeg","Stim\r03y11g01b26.jpeg",13,3,33,11,8,1,23,26,2,-3,0,1,1,0,1,1.247,2.593,0,2.376,2,"blå","4_1",3,0,1,1,"Right_lead","Male","Female","surrender",0.161455562335503,0.146345109936399,0.906411075713176,-0.0935889242868242,2,3,-0.0770991079443883,0.92951600308978,1.5,0.5
"54","1_2",4,"4_2",4,"4",1,"Female","Male",23,23,"Stim\r14y10g15b15.jpeg","Stim\r21y24g16b04.jpeg",14,21,10,24,15,16,15,4,2,-2,0,-1,1,0,0,1.523,1.554,0,2.404,2,"rød","4_1",7,0,1,0,"Right_lead","Male","Female","stick",NA,NA,NA,NA,2,2,-0.0770991079443883,-0.619677335393187,1,0
"55","1_2",43,"4_2",43,"4",1,"Female","Male",23,23,"Stim\r12y09g30b18.jpeg","Stim\r11y10g06b19.jpeg",12,11,9,10,30,6,18,19,4,-3,1,0,1,0,1,1.703,1.506,1.51,0,2,"blå","4_1",1,0,1,1,"Left_lead","Female","Male","stick",0.154984594016455,0.148466438031613,1.04390322871122,0.0439032287112195,4,3,1.85037859066532,0.92951600308978,1.33333333333333,0.333333333333333
"56","1_2",46,"4_2",46,"4",1,"Female","Male",23,23,"Stim\r22y23g20b06.jpeg","Stim\r16y09g06b10.jpeg",22,16,23,9,20,6,6,10,1,-3,0,-1,1,0,0,2.035,2.115,0,2.215,2,"blå","4_1",4,0,1,0,"Right_lead","Male","Female","stick",0.182825512185386,0.17550590687194,0.959963983002417,-0.0400360169975834,1,3,-1.04083795724924,0.92951600308978,3,2
"57","1_2",49,"4_2",49,"4",1,"Female","Male",23,23,"Stim\r22y35g09b11.jpeg","Stim\r13y33g08b23.jpeg",22,13,35,33,9,8,11,23,-1,2,1,0,1,0,0,2.159,1.371,4.01,0,2,"gul","4_1",-2,1,0,1,"Left_lead","Female","Male","surrender",0.198181949813423,0.183017420579317,1.08285839231099,0.0828583923109871,1,2,-1.04083795724924,-0.619677335393187,0.5,-0.5
"58","1_2",56,"4_2",56,"4",1,"Female","Male",23,23,"Stim\r09y17g32b21.jpeg","Stim\r13y21g23b09.jpeg",9,13,17,21,32,23,21,9,-4,3,0,-1,0,1,0,2.293,1.472,0,1.642,2,"gul","4_1",4,1,0,0,"Right_lead","Male","Female","surrender",0.206545514608923,0.220841488280997,1.06921464113681,0.0692146411368082,4,3,1.85037859066532,0.92951600308978,0.75,-0.25
"59","1_2",57,"4_2",57,"4",1,"Female","Male",23,23,"Stim\r09y15g18b07.jpeg","Stim\r17y12g19b18.jpeg",9,17,15,12,18,19,7,18,-2,2,-1,0,1,0,1,1.804,4.033,4.565,0,2,"gul","4_1",-3,1,0,0,"Left_lead","Female","Male","stick",0.187239201939496,0.191583399821492,0.977324768815859,-0.0226752311841407,2,2,-0.0770991079443883,-0.619677335393187,1,0
"60","1_2",58,"4_2",58,"4",1,"Female","Male",23,23,"Stim\r10y03g03b07.jpeg","Stim\r03y06g12b09.jpeg",10,3,3,6,3,12,7,9,2,-2,-1,0,1,0,0,2.34,1.803,2.205,0,2,"gul","4_1",3,0,1,0,"Left_lead","Female","Male","surrender",0.199405197024519,0.171188534835504,1.16482799047336,0.16482799047336,2,2,-0.0770991079443883,-0.619677335393187,1,0
"61","1_2",6,"4_2",6,"4",1,"Female","Male",23,23,"Stim\r10y27g22b14.jpeg","Stim\r13y33g08b23.jpeg",10,13,27,33,22,8,14,23,3,-2,1,0,1,0,1,2.001,1.847,2.105,0,2,"rød","4_1",3,0,1,1,"Left_lead","Female","Male","stick",NA,NA,NA,NA,3,2,0.886639741360465,-0.619677335393187,1.5,0.5
"62","1_2",7,"4_2",7,"4",1,"Female","Male",23,23,"Stim\r13y24g05b28.jpeg","Stim\r14y10g15b15.jpeg",13,14,24,10,5,15,28,15,4,-2,0,1,1,0,1,1.537,1.95,0,1.34,2,"rød","4_1",1,0,1,1,"Right_lead","Male","Female","surrender",NA,NA,NA,NA,4,2,1.85037859066532,-0.619677335393187,0.5,-0.5
"63","1_2",71,"4_2",71,"4",1,"Female","Male",23,23,"Stim\r04y16g13b13.jpeg","Stim\r17y20g40b07.jpeg",4,17,16,20,13,40,13,7,-1,3,0,1,0,1,1,2.162,1.409,0,2.149,2,"gul","4_1",4,1,0,1,"Right_lead","Male","Female","stick",0.238792623279611,0.26263606304143,1.09984998461992,0.0998499846199179,1,3,-1.04083795724924,0.92951600308978,3,2
"64","1_2",72,"4_2",72,"4",1,"Female","Male",23,23,"Stim\r03y11g01b26.jpeg","Stim\r08y12g20b03.jpeg",3,8,11,12,1,20,26,3,1,-2,1,0,1,0,1,1.976,1.439,1.407,0,2,"gul","4_1",1,0,1,1,"Left_lead","Female","Male","stick",0.231063999303357,0.241105884927398,0.958350723678666,-0.0416492763213342,1,2,-1.04083795724924,-0.619677335393187,0.5,-0.5
"65","1_2",76,"4_2",76,"4",1,"Female","Male",23,23,"Stim\r17y07g07b24.jpeg","Stim\r10y03g03b07.jpeg",17,10,7,3,7,3,24,7,-4,2,-1,0,1,0,1,1.57,2.632,1.267,0,2,"grøn","4_1",-4,1,0,0,"Left_lead","Female","Male","stick",0.237134242128066,0.231804533173179,1.02299225507771,0.0229922550777091,4,2,1.85037859066532,-0.619677335393187,2,1
"66","1_2",78,"4_2",78,"4",1,"Female","Male",23,23,"Stim\r14y08g21b39.jpeg","Stim\r08y12g20b03.jpeg",14,8,8,12,21,20,39,3,1,-2,1,0,0,1,0,1.022,1.334,1.394,0,2,"grøn","4_1",-1,0,1,1,"Left_lead","Female","Male","stick",0.209432776735592,0.209118250874979,1.00150405743782,0.00150405743782267,1,2,-1.04083795724924,-0.619677335393187,0.5,-0.5
"67","1_2",79,"4_2",79,"4",1,"Female","Male",23,23,"Stim\r21y24g16b04.jpeg","Stim\r09y15g18b07.jpeg",21,9,24,15,16,18,4,7,2,-2,0,1,1,0,1,1.148,4.692,0,2.5,2,"grøn","4_1",2,0,1,1,"Right_lead","Male","Female","surrender",0.205382380847531,0.202154248685485,0.984282331577204,-0.0157176684227964,2,2,-0.0770991079443883,-0.619677335393187,1,0
"68","1_2",84,"4_2",84,"4",1,"Female","Male",23,23,"Stim\r07y02g03b06.jpeg","Stim\r10y37g07b02.jpeg",7,10,2,37,3,7,6,2,-2,3,-1,0,0,1,0,1.665,3.007,2.355,0,2,"grøn","4_1",4,1,0,0,"Left_lead","Female","Male","stick",0.205951261779677,0.205136112744986,1.00397369835951,0.00397369835951,2,3,-0.0770991079443883,0.92951600308978,0.666666666666667,-0.333333333333333
"69","1_2",90,"4_2",90,"4",1,"Female","Male",23,23,"Stim\r10y07g11b10.jpeg","Stim\r18y19g14b27.jpeg",10,18,7,19,11,14,10,27,-2,3,1,0,0,1,1,1.827,1.573,2.359,0,2,"grøn","4_1",3,1,0,1,"Left_lead","Female","Male","surrender",0.246946847961767,0.256346320157704,0.96333291544753,-0.0366670845524696,2,3,-0.0770991079443883,0.92951600308978,0.666666666666667,-0.333333333333333
"70","1_2",92,"4_2",92,"4",1,"Female","Male",23,23,"Stim\r12y12g14b26.jpeg","Stim\r11y14g08b23.jpeg",12,11,12,14,14,8,26,23,-2,1,0,-1,1,0,1,1.432,2.695,0,2.127,2,"grøn","4_1",-6,1,0,0,"Right_lead","Male","Female","surrender",0.252682615469141,0.257417700508272,1.01873925924955,0.0187392592495517,2,1,-0.0770991079443883,-2.16887067387615,0.5,-0.5
"71","1_2",95,"4_2",95,"4",1,"Female","Male",23,23,"Stim\r07y14g27b22.jpeg","Stim\r12y09g30b18.jpeg",7,12,14,9,27,30,22,18,-1,3,1,0,0,1,1,1.625,3.323,2.853,0,2,"grøn","4_1",3,1,0,1,"Left_lead","Female","Male","surrender",0.235745484239072,0.234124021020229,1.0069256593654,0.00692565936539635,1,3,-1.04083795724924,0.92951600308978,0.333333333333333,-0.666666666666667
"72","11_1",10,"9_1",10,"9",11,"Male","Male",23,23,"Stim\r01y27g01b01.jpeg","Stim\r04y39g24b15.jpeg",1,4,27,39,1,24,1,15,-3,2,0,1,0,1,1,9.674,2.235,0,5.264,1,"rød","9_11",3,1,0,1,"Right_lead","Male","Male","stick",0.206206988928413,0.193579396330413,0.938762538245569,-0.0612374617544307,3,2,-0.66884408058887,-0.952500952501429,0.666666666666667,-0.333333333333333
"73","11_1",16,"9_1",16,"9",11,"Male","Male",23,23,"Stim\r14y10g15b15.jpeg","Stim\r15y05g12b10.jpeg",14,15,10,5,15,12,15,10,4,-4,1,0,1,0,1,1.404,2.117,2.386,0,1,"rød","9_11",1,0,1,1,"Left_lead","Male","Male","stick",0.212207772229472,0.201151399302767,1.05496542885125,0.0549654288512471,4,4,0.812167812143628,1.01600101600152,1,0
"74","11_1",17,"9_1",17,"9",11,"Male","Male",23,23,"Stim\r02y19g24b04.jpeg","Stim\r04y39g24b15.jpeg",2,4,19,39,24,24,4,15,-4,3,0,1,0,1,1,2.177,1.789,0,1.975,1,"rød","9_11",2,1,0,1,"Right_lead","Male","Male","stick",0.211093382630551,0.203491916076495,0.963990029155202,-0.0360099708447983,4,3,0.812167812143628,0.0317500317500476,0.75,-0.25
"75","11_1",20,"9_1",20,"9",11,"Male","Male",23,23,"Stim\r21y31g06b08.jpeg","Stim\r17y11g38b07.jpeg",21,17,31,11,6,38,8,7,-4,4,0,1,1,0,0,1.773,1.369,0,1.548,1,"rød","9_11",-4,1,0,1,"Right_lead","Male","Male","stick",0.240681115923172,0.225071379406455,0.935143492845946,-0.0648565071540544,4,4,0.812167812143628,1.01600101600152,1,0
"76","11_1",22,"9_1",22,"9",11,"Male","Male",23,23,"Stim\r05y40g33b16.jpeg","Stim\r08y23g10b29.jpeg",5,8,40,23,33,10,16,29,4,-2,1,0,1,0,1,3.141,2.354,3.796,0,1,"rød","9_11",3,0,1,1,"Left_lead","Male","Male","stick",0.23247492838211,0.223283822631342,1.04116333034097,0.041163330340968,4,2,0.812167812143628,-0.952500952501429,2,1
"77","11_1",24,"9_1",24,"9",11,"Male","Male",23,23,"Stim\r10y37g07b02.jpeg","Stim\r06y14g31b25.jpeg",10,6,37,14,7,31,2,25,4,-3,0,-1,0,1,1,1.145,1.457,0,1.214,1,"rød","9_11",-4,0,1,0,"Right_lead","Male","Male","stick",0.240166037138171,0.237838640273091,0.990309217353072,-0.00969078264692769,4,3,0.812167812143628,0.0317500317500476,0.75,-0.25
"78","11_1",25,"9_1",25,"9",11,"Male","Male",23,23,"Stim\r06y14g31b25.jpeg","Stim\r09y06g26b32.jpeg",6,9,14,6,31,26,25,32,4,-3,1,0,1,0,1,1.843,1.339,1.916,0,1,"rød","9_11",3,0,1,1,"Left_lead","Male","Male","stick",0.240996997755494,0.240955930418945,1.00017043505208,0.000170435052076146,4,3,0.812167812143628,0.0317500317500476,1.33333333333333,0.333333333333333
"79","11_1",29,"9_1",29,"9",11,"Male","Male",23,23,"Stim\r12y09g30b18.jpeg","Stim\r10y27g22b14.jpeg",12,10,9,27,30,22,18,14,4,-3,-1,0,0,1,1,1.819,2.099,2.679,0,1,"blå","9_11",-4,0,1,0,"Left_lead","Male","Male","surrender",0.230875615382159,0.232295548921026,0.993887383785603,-0.00611261621439729,4,3,0.812167812143628,0.0317500317500476,1.33333333333333,0.333333333333333
"80","11_1",30,"9_1",30,"9",11,"Male","Male",23,23,"Stim\r10y02g36b05.jpeg","Stim\r04y28g27b06.jpeg",10,4,2,28,36,27,5,6,4,-2,0,1,1,0,1,1.906,1.769,0,2.152,1,"blå","9_11",1,0,1,1,"Right_lead","Male","Male","surrender",0.223191131465803,0.228163466091981,1.02227837008362,0.0222783700836242,4,2,0.812167812143628,-0.952500952501429,0.5,-0.5
"81","11_1",32,"9_1",32,"9",11,"Male","Male",23,23,"Stim\r04y16g13b13.jpeg","Stim\r15y05g12b10.jpeg",4,15,16,5,13,12,13,10,-3,3,0,1,1,0,0,1.365,1.578,0,1.263,1,"blå","9_11",-3,1,0,1,"Right_lead","Male","Male","stick",0.22083575816209,0.225316037002704,1.02028783235967,0.020287832359674,3,3,-0.66884408058887,0.0317500317500476,1,0
"82","11_1",33,"9_1",33,"9",11,"Male","Male",23,23,"Stim\r06y14g31b25.jpeg","Stim\r13y24g05b28.jpeg",6,13,14,24,31,5,25,28,3,-2,0,-1,1,0,0,1.691,1.571,0,1.912,1,"blå","9_11",3,0,1,0,"Right_lead","Male","Male","stick",0.208821534510108,0.205204391145226,0.982678302918481,-0.0173216970815186,3,2,-0.66884408058887,-0.952500952501429,0.666666666666667,-0.333333333333333
"83","11_1",34,"9_1",34,"9",11,"Male","Male",23,23,"Stim\r17y20g40b07.jpeg","Stim\r09y07g06b09.jpeg",17,9,20,7,40,6,7,9,4,-2,1,0,1,0,1,1.297,2.01,1.113,0,1,"blå","9_11",2,0,1,1,"Left_lead","Male","Male","stick",0.220123006584433,0.18630409151825,1.18152534810471,0.181525348104715,4,2,0.812167812143628,-0.952500952501429,2,1
"84","11_1",37,"9_1",37,"9",11,"Male","Male",23,23,"Stim\r16y21g04b04.jpeg","Stim\r17y11g38b07.jpeg",16,17,21,11,4,38,4,7,4,-3,0,-1,1,0,0,1.118,1.399,0,1.181,1,"blå","9_11",3,0,1,0,"Right_lead","Male","Male","stick",0.185205292013608,0.160656104818816,0.867448781145043,-0.132551218854957,4,3,0.812167812143628,0.0317500317500476,0.75,-0.25
"85","11_1",39,"9_1",39,"9",11,"Male","Male",23,23,"Stim\r22y35g09b11.jpeg","Stim\r09y07g06b09.jpeg",22,9,35,7,9,6,11,9,-2,1,0,-1,1,0,1,3.815,2.556,0,3.192,1,"blå","9_11",-2,1,0,0,"Right_lead","Male","Male","surrender",0.165203605171919,0.144972514679538,0.877538444325549,-0.122461555674451,2,1,-2.14985597332137,-1.93675193675291,0.5,-0.5
"86","11_1",43,"9_1",43,"9",11,"Male","Male",23,23,"Stim\r11y14g08b23.jpeg","Stim\r09y17g32b21.jpeg",11,9,14,17,8,32,23,21,2,-2,0,-1,0,1,1,2.535,2.581,0,1.68,1,"blå","9_11",-2,0,1,0,"Right_lead","Male","Male","stick",0.154218190535109,0.149303105627548,0.968129019731677,-0.0318709802683234,2,2,-2.14985597332137,-0.952500952501429,1,0
"87","11_1",45,"9_1",45,"9",11,"Male","Male",23,23,"Stim\r21y24g16b04.jpeg","Stim\r21y31g06b08.jpeg",21,21,24,31,16,6,4,8,4,-1,0,-1,1,0,0,1.799,1.78,0,1.811,1,"blå","9_11",4,0,1,0,"Right_lead","Male","Male","stick",0.171138246174567,0.165795230326367,0.968779533694941,-0.0312204663050591,4,1,0.812167812143628,-1.93675193675291,0.25,-0.75
"88","11_1",49,"9_1",49,"9",11,"Male","Male",23,23,"Stim\r08y09g09b11.jpeg","Stim\r03y06g12b09.jpeg",8,3,9,6,9,12,11,9,3,-2,1,0,0,1,0,0.99,1.035,1.346,0,1,"blå","9_11",-2,0,1,1,"Left_lead","Male","Male","stick",0.167163190328442,0.168893593898963,0.989754474811187,-0.0102455251888131,3,2,-0.66884408058887,-0.952500952501429,1.5,0.5
"89","11_1",54,"9_1",54,"9",11,"Male","Male",23,23,"Stim\r15y16g12b03.jpeg","Stim\r02y19g24b04.jpeg",15,2,16,19,12,24,3,4,-3,4,-1,0,0,1,0,1.417,1.231,1.41,0,1,"gul","9_11",3,1,0,0,"Left_lead","Male","Male","stick",0.163321304748306,0.172620471291613,0.946129410528618,-0.0538705894713822,3,4,-0.66884408058887,1.01600101600152,0.75,-0.25
"90","11_1",57,"9_1",57,"9",11,"Male","Male",23,23,"Stim\r15y17g24b30.jpeg","Stim\r19y15g35b05.jpeg",15,19,17,15,24,35,30,5,-4,4,0,1,1,0,0,1.936,2.086,0,1.501,1,"gul","9_11",-2,1,0,1,"Right_lead","Male","Male","stick",0.203014720043363,0.235959862061933,1.16227957269075,0.162279572690754,4,4,0.812167812143628,1.01600101600152,1,0
"91","11_1",58,"9_1",58,"9",11,"Male","Male",23,23,"Stim\r11y26g25b38.jpeg","Stim\r05y28g23b30.jpeg",11,5,26,28,25,23,38,30,-3,4,1,0,0,1,1,1.851,1.447,2.295,0,1,"gul","9_11",2,1,0,1,"Left_lead","Male","Male","surrender",0.202108716210629,0.244356886311983,0.827104647063584,-0.172895352936416,3,4,-0.66884408058887,1.01600101600152,0.75,-0.25
"92","11_1",59,"9_1",59,"9",11,"Male","Male",23,23,"Stim\r09y15g18b07.jpeg","Stim\r08y12g20b03.jpeg",9,8,15,12,18,20,7,3,-4,2,-1,0,1,0,1,1.379,1.791,1.562,0,1,"gul","9_11",-3,1,0,0,"Left_lead","Male","Male","stick",0.197349301231338,0.202751598987164,0.973355091733861,-0.026644908266139,4,2,0.812167812143628,-0.952500952501429,2,1
"93","11_1",60,"9_1",60,"9",11,"Male","Male",23,23,"Stim\r19y15g35b05.jpeg","Stim\r12y12g14b26.jpeg",19,12,15,12,35,14,5,26,-2,4,0,1,1,0,0,1.64,1.753,0,1.411,1,"gul","9_11",-3,1,0,1,"Right_lead","Male","Male","stick",0.214437720232459,0.185639311352457,0.865702690511803,-0.134297309488197,2,4,-2.14985597332137,1.01600101600152,2,1
"94","11_1",62,"9_1",62,"9",11,"Male","Male",23,23,"Stim\r21y31g06b08.jpeg","Stim\r01y27g01b01.jpeg",21,1,31,27,6,1,8,1,-4,4,-1,0,1,0,1,2.077,1.555,2.793,0,1,"gul","9_11",-4,1,0,0,"Left_lead","Male","Male","stick",0.231432128921065,0.199400019046679,1.16064246145778,0.160642461457776,4,4,0.812167812143628,1.01600101600152,1,0
"95","11_1",63,"9_1",63,"9",11,"Male","Male",23,23,"Stim\r22y23g20b06.jpeg","Stim\r21y24g16b04.jpeg",22,21,23,24,20,16,6,4,-3,2,-1,0,0,1,0,1.632,2.08,1.272,0,1,"gul","9_11",1,1,0,0,"Left_lead","Male","Male","stick",0.235096057671657,0.194825145599488,1.20670284602254,0.206702846022536,3,2,-0.66884408058887,-0.952500952501429,1.5,0.5
"96","11_1",66,"9_1",66,"9",11,"Male","Male",23,23,"Stim\r02y19g24b04.jpeg","Stim\r19y15g35b05.jpeg",2,19,19,15,24,35,4,5,-3,4,0,1,1,0,0,1.051,1.48,0,2.158,1,"gul","9_11",-4,1,0,1,"Right_lead","Male","Male","stick",0.231665598352485,0.207101672207615,0.893968175164724,-0.106031824835276,3,4,-0.66884408058887,1.01600101600152,1.33333333333333,0.333333333333333
"97","11_1",73,"9_1",73,"9",11,"Male","Male",23,23,"Stim\r09y17g32b21.jpeg","Stim\r07y14g27b22.jpeg",9,7,17,14,32,27,21,22,-3,4,0,1,1,0,0,1.619,1.183,0,1.126,1,"gul","9_11",-3,1,0,1,"Right_lead","Male","Male","stick",0.249904995410341,0.232935351905981,0.932095621071936,-0.0679043789280644,3,4,-0.66884408058887,1.01600101600152,1.33333333333333,0.333333333333333
"98","11_1",85,"9_1",85,"9",11,"Male","Male",23,23,"Stim\r17y12g19b18.jpeg","Stim\r21y24g16b04.jpeg",17,21,12,24,19,16,18,4,3,-4,0,-1,0,1,1,1.878,1.803,0,1.278,1,"grøn","9_11",-3,0,1,0,"Right_lead","Male","Male","stick",0.197386444630357,0.203413663242917,1.03053511918636,0.030535119186361,3,4,-0.66884408058887,1.01600101600152,1.33333333333333,0.333333333333333
"99","11_1",87,"9_1",87,"9",11,"Male","Male",23,23,"Stim\r06y14g31b25.jpeg","Stim\r07y14g27b22.jpeg",6,7,14,14,31,27,25,22,4,-4,0,-1,0,1,1,1.958,1.881,0,2.423,1,"grøn","9_11",-4,0,1,0,"Right_lead","Male","Male","stick",0.224027364467691,0.241188147176985,1.07660127926814,0.0766012792681356,4,4,0.812167812143628,1.01600101600152,1,0
"100","11_1",9,"9_1",9,"9",11,"Male","Male",23,23,"Stim\r13y24g05b28.jpeg","Stim\r21y31g06b08.jpeg",13,21,24,31,5,6,28,8,3,-2,1,0,1,0,1,1.64,2.201,2.945,0,1,"rød","9_11",8,0,1,1,"Left_lead","Male","Male","stick",NA,NA,NA,NA,3,2,-0.66884408058887,-0.952500952501429,1.5,0.5
"101","11_1",90,"9_1",90,"9",11,"Male","Male",23,23,"Stim\r06y19g29b08.jpeg","Stim\r05y40g33b16.jpeg",6,5,19,40,29,33,8,16,4,-4,0,-1,1,0,0,1.255,1.683,0,1.174,1,"grøn","9_11",4,0,1,0,"Right_lead","Male","Male","stick",0.244272930525794,0.24528098075507,1.00412673736343,0.00412673736343261,4,4,0.812167812143628,1.01600101600152,1,0
"102","11_1",93,"9_1",93,"9",11,"Male","Male",23,23,"Stim\r11y14g08b23.jpeg","Stim\r13y24g05b28.jpeg",11,13,14,24,8,5,23,28,-4,4,0,-1,1,0,1,1.275,1.005,0,1.014,1,"grøn","9_11",-3,1,0,0,"Right_lead","Male","Male","surrender",0.235691699103985,0.23579502929572,1.00043841251995,0.000438412519947917,4,4,0.812167812143628,1.01600101600152,1,0
"103","11_2",11,"12_2",11,"12",11,"Female","Male",24,23,"Stim\r21y01g04b27.jpeg","Stim\r18y13g28b06.jpeg",21,18,1,13,4,28,27,6,1,-4,-1,0,0,1,1,1.925,1.271,1.975,0,2,"rød","12_11",-3,0,1,0,"Left_lead","Female","Male","surrender",0.192693759392159,0.185353739786003,1.03960006210088,0.0396000621008796,1,4,-0.640961115694596,0.440170421541475,0.25,-0.75
"104","11_2",14,"12_2",14,"12",11,"Female","Male",24,23,"Stim\r10y07g11b10.jpeg","Stim\r14y10g15b15.jpeg",10,14,7,10,11,15,10,15,-1,4,0,1,0,1,1,1.088,1.318,0,1.437,2,"rød","12_11",4,1,0,1,"Right_lead","Male","Female","stick",0.200715499663423,0.206053611347413,1.02659541337336,0.0265954133733639,1,4,-0.640961115694596,0.440170421541475,4,3
"105","11_2",18,"12_2",18,"12",11,"Female","Male",24,23,"Stim\r14y12g04b29.jpeg","Stim\r17y20g40b07.jpeg",14,17,12,20,4,40,29,7,1,-4,-1,0,1,0,0,1.894,1.24,1.566,0,2,"rød","12_11",3,0,1,0,"Left_lead","Female","Male","surrender",0.214542649691081,0.231636010115342,0.926205945199326,-0.0737940548006738,1,4,-0.640961115694596,0.440170421541475,0.25,-0.75
"106","11_2",2,"12_2",2,"12",11,"Female","Male",24,23,"Stim\r14y08g21b39.jpeg","Stim\r18y13g28b06.jpeg",14,18,8,13,21,28,39,6,2,-3,-1,0,1,0,0,1.07,1.5,4.155,0,2,"rød","12_11",4,0,1,0,"Left_lead","Female","Male","surrender",NA,NA,NA,NA,2,3,0.498525312206908,-1.32051126462443,0.666666666666667,-0.333333333333333
"107","11_2",21,"12_2",21,"12",11,"Female","Male",24,23,"Stim\r17y22g16b15.jpeg","Stim\r13y21g23b09.jpeg",17,13,22,21,16,23,15,9,1,-4,-1,0,0,1,1,1.435,2.547,1.53,0,2,"rød","12_11",-4,0,1,0,"Left_lead","Female","Male","surrender",0.226054386741744,0.234609353310142,0.963535270662936,-0.0364647293370642,1,4,-0.640961115694596,0.440170421541475,0.25,-0.75
"108","11_2",23,"12_2",23,"12",11,"Female","Male",24,23,"Stim\r06y19g29b08.jpeg","Stim\r05y28g23b30.jpeg",6,5,19,28,29,23,8,30,2,-4,0,-1,0,1,1,1.099,1.56,0,2.498,2,"rød","12_11",-1,0,1,0,"Right_lead","Male","Female","stick",0.230226923095158,0.23984265330341,1.04176631507288,0.0417663150728798,2,4,0.498525312206908,0.440170421541475,2,1
"109","11_2",27,"12_2",27,"12",11,"Female","Male",24,23,"Stim\r20y14g02b19.jpeg","Stim\r04y39g24b15.jpeg",20,4,14,39,2,24,19,15,4,-4,0,1,0,1,0,1.315,1.229,0,2.282,2,"blå","12_11",-4,0,1,1,"Right_lead","Male","Female","surrender",0.213174864713172,0.261481654784529,1.22660640660593,0.226606406605929,4,4,2.77749816800991,0.440170421541475,1,0
"110","11_2",28,"12_2",28,"12",11,"Female","Male",24,23,"Stim\r10y13g07b36.jpeg","Stim\r15y17g24b30.jpeg",10,15,13,17,7,24,36,30,3,-4,0,-1,0,1,1,1.037,1.233,0,1.405,2,"blå","12_11",-6,0,1,0,"Right_lead","Male","Female","stick",0.197465376541696,0.26803411258162,1.35737270642493,0.357372706424931,3,4,1.63801174010841,0.440170421541475,1.33333333333333,0.333333333333333
"111","11_2",29,"12_2",29,"12",11,"Female","Male",24,23,"Stim\r07y06g08b05.jpeg","Stim\r18y13g28b06.jpeg",7,18,6,13,8,28,5,6,1,-4,-1,0,1,0,0,1.567,2.013,1.963,0,2,"blå","12_11",1,0,1,0,"Left_lead","Female","Male","surrender",0.199285425761032,0.268018580698916,0.743550783835033,-0.256449216164967,1,4,-0.640961115694596,0.440170421541475,0.25,-0.75
"112","11_2",3,"12_2",3,"12",11,"Female","Male",24,23,"Stim\r11y10g06b19.jpeg","Stim\r09y06g26b32.jpeg",11,9,10,6,6,26,19,32,1,-4,1,0,0,1,0,1.874,2.336,5.858,0,2,"rød","12_11",-2,0,1,1,"Left_lead","Female","Male","stick",NA,NA,NA,NA,1,4,-0.640961115694596,0.440170421541475,0.25,-0.75
"113","11_2",30,"12_2",30,"12",11,"Female","Male",24,23,"Stim\r22y23g20b06.jpeg","Stim\r16y21g04b04.jpeg",22,16,23,21,20,4,6,4,1,-3,0,1,0,1,0,1.572,1.701,0,2.231,2,"blå","12_11",-2,0,1,1,"Right_lead","Male","Female","surrender",0.202192448136372,0.240197553271183,1.18796500801641,0.187965008016411,1,3,-0.640961115694596,-1.32051126462443,3,2
"114","11_2",35,"12_2",35,"12",11,"Female","Male",24,23,"Stim\r11y13g22b35.jpeg","Stim\r21y03g15b37.jpeg",11,21,13,3,22,15,35,37,-1,4,1,0,0,1,1,1.622,1.944,1.614,0,2,"blå","12_11",2,1,0,1,"Left_lead","Female","Male","surrender",0.171273329342782,0.253030290712713,0.676888639934589,-0.323111360065411,1,4,-0.640961115694596,0.440170421541475,0.25,-0.75
"115","11_2",37,"12_2",37,"12",11,"Female","Male",24,23,"Stim\r11y10g06b19.jpeg","Stim\r05y40g33b16.jpeg",11,5,10,40,6,33,19,16,1,-4,0,-1,0,1,1,1.444,1.873,0,1.431,2,"blå","12_11",-3,0,1,0,"Right_lead","Male","Female","stick",0.16461277484219,0.190914202230956,1.1597775592689,0.159777559268899,1,4,-0.640961115694596,0.440170421541475,4,3
"116","11_2",38,"12_2",38,"12",11,"Female","Male",24,23,"Stim\r17y07g07b24.jpeg","Stim\r12y07g16b25.jpeg",17,12,7,7,7,16,24,25,-2,4,0,1,0,1,1,0.952,1.661,0,1.679,2,"blå","12_11",1,1,0,1,"Right_lead","Male","Female","stick",0.166583807953923,0.174677097414312,1.04858389035402,0.048583890354023,2,4,0.498525312206908,0.440170421541475,2,1
"117","11_2",41,"12_2",41,"12",11,"Female","Male",24,23,"Stim\r17y11g38b07.jpeg","Stim\r10y02g36b05.jpeg",17,10,11,2,38,36,7,5,1,-4,0,-1,0,1,1,0.999,2.861,0,1.161,2,"blå","12_11",-2,0,1,0,"Right_lead","Male","Female","stick",0.154529291569749,0.162353637812301,1.05063341818933,0.0506334181893298,1,4,-0.640961115694596,0.440170421541475,4,3
"118","11_2",47,"12_2",47,"12",11,"Female","Male",24,23,"Stim\r06y14g31b25.jpeg","Stim\r14y12g04b29.jpeg",6,14,14,12,31,4,25,29,-1,4,0,1,0,1,1,1.719,2.465,0,1.378,2,"blå","12_11",4,1,0,1,"Right_lead","Male","Female","stick",0.18046940867006,0.187608232771759,1.03955697618952,0.0395569761895238,1,4,-0.640961115694596,0.440170421541475,4,3
"119","11_2",48,"12_2",48,"12",11,"Female","Male",24,23,"Stim\r11y14g08b23.jpeg","Stim\r11y10g06b19.jpeg",11,11,14,10,8,6,23,19,1,-4,0,-1,0,1,1,4.497,1.224,0,1.199,2,"blå","12_11",-4,0,1,0,"Right_lead","Male","Female","stick",0.173841302916517,0.188360211721399,1.08351817756367,0.0835181775636733,1,4,-0.640961115694596,0.440170421541475,4,3
"120","11_2",49,"12_2",49,"12",11,"Female","Male",24,23,"Stim\r07y02g03b06.jpeg","Stim\r19y10g06b15.jpeg",7,19,2,10,3,6,6,15,4,-4,0,1,1,0,1,1.451,2.096,0,1.16,2,"gul","12_11",8,0,1,1,"Right_lead","Male","Female","surrender",0.181592910195136,0.188159581737695,1.03616149735969,0.0361614973596855,4,4,2.77749816800991,0.440170421541475,1,0
"121","11_2",51,"12_2",51,"12",11,"Female","Male",24,23,"Stim\r21y31g06b08.jpeg","Stim\r10y27g22b14.jpeg",21,10,31,27,6,22,8,14,2,-4,0,1,0,1,0,1.241,2.019,0,1.181,2,"gul","12_11",-4,0,1,1,"Right_lead","Male","Female","surrender",0.183446481713865,0.206259618849759,1.12435854273552,0.124358542735517,2,4,0.498525312206908,0.440170421541475,2,1
"122","11_2",57,"12_2",57,"12",11,"Female","Male",24,23,"Stim\r14y10g15b15.jpeg","Stim\r10y07g11b10.jpeg",14,10,10,7,15,11,15,10,-1,4,0,1,1,0,0,1.235,2.097,0,1.147,2,"gul","12_11",-3,1,0,1,"Right_lead","Male","Female","stick",0.17078974653278,0.140462301757404,0.822428187926638,-0.177571812073362,1,4,-0.640961115694596,0.440170421541475,4,3
"123","11_2",58,"12_2",58,"12",11,"Female","Male",24,23,"Stim\r04y28g27b06.jpeg","Stim\r10y27g22b14.jpeg",4,10,28,27,27,22,6,14,-3,4,1,0,1,0,0,1.434,1.563,2.728,0,2,"gul","12_11",-1,1,0,1,"Left_lead","Female","Male","surrender",0.193901807046794,0.140862158743596,1.37653581896145,0.376535818961452,3,4,1.63801174010841,0.440170421541475,0.75,-0.25
"124","11_2",72,"12_2",72,"12",11,"Female","Male",24,23,"Stim\r13y24g05b28.jpeg","Stim\r10y27g22b14.jpeg",13,10,24,27,5,22,28,14,-1,4,1,0,0,1,1,0.957,1.136,2.431,0,2,"gul","12_11",3,1,0,1,"Left_lead","Female","Male","surrender",0.232304628385037,0.241671539279915,0.961241150187615,-0.0387588498123845,1,4,-0.640961115694596,0.440170421541475,0.25,-0.75
"125","11_2",73,"12_2",73,"12",11,"Female","Male",24,23,"Stim\r21y31g06b08.jpeg","Stim\r10y37g07b02.jpeg",21,10,31,37,6,7,8,2,1,-4,0,-1,1,0,0,2.566,2.978,0,1.114,2,"grøn","12_11",1,0,1,0,"Right_lead","Male","Female","stick",0.236274405336181,0.241205980081153,1.02087223429027,0.0208722342902743,1,4,-0.640961115694596,0.440170421541475,4,3
"126","11_2",74,"12_2",74,"12",11,"Female","Male",24,23,"Stim\r07y06g08b05.jpeg","Stim\r09y02g05b02.jpeg",7,9,6,2,8,5,5,2,-1,4,0,1,1,0,0,0.997,1.948,0,1.955,2,"grøn","12_11",-3,1,0,1,"Right_lead","Male","Female","stick",0.240932071389916,0.236584928646745,0.981956977673862,-0.0180430223261384,1,4,-0.640961115694596,0.440170421541475,4,3
"127","11_2",76,"12_2",76,"12",11,"Female","Male",24,23,"Stim\r20y04g39b23.jpeg","Stim\r17y20g40b07.jpeg",20,17,4,20,39,40,23,7,-2,4,1,0,0,1,1,0.88,3.759,2.295,0,2,"grøn","12_11",1,1,0,1,"Left_lead","Female","Male","surrender",0.240889005229919,0.232724068850502,1.03508419399741,0.0350841939974074,2,4,0.498525312206908,0.440170421541475,0.5,-0.5
"128","11_2",78,"12_2",78,"12",11,"Female","Male",24,23,"Stim\r04y28g27b06.jpeg","Stim\r09y06g26b32.jpeg",4,9,28,6,27,26,6,32,-2,4,1,0,1,0,0,1.783,1.412,1.71,0,2,"grøn","12_11",-1,1,0,1,"Left_lead","Female","Male","surrender",0.207212910701587,0.207581231142916,0.998225656340407,-0.00177434365959317,2,4,0.498525312206908,0.440170421541475,0.5,-0.5
"129","11_2",79,"12_2",79,"12",11,"Female","Male",24,23,"Stim\r11y13g22b35.jpeg","Stim\r04y16g13b13.jpeg",11,4,13,16,22,13,35,13,-2,2,0,1,1,0,0,2.57,1.747,0,2.783,2,"grøn","12_11",-9,1,0,1,"Right_lead","Male","Female","stick",0.209580108499384,0.192744220285496,0.919668482212197,-0.0803315177878031,2,2,0.498525312206908,-3.08119295079033,1,0
"130","11_2",8,"12_2",8,"12",11,"Female","Male",24,23,"Stim\r09y17g32b21.jpeg","Stim\r13y33g08b23.jpeg",9,13,17,33,32,8,21,23,1,-4,-1,0,1,0,0,2.503,1.666,2.395,0,2,"rød","12_11",4,0,1,0,"Left_lead","Female","Male","surrender",NA,NA,NA,NA,1,4,-0.640961115694596,0.440170421541475,0.25,-0.75
"131","11_2",83,"12_2",83,"12",11,"Female","Male",24,23,"Stim\r22y35g09b11.jpeg","Stim\r10y37g07b02.jpeg",22,10,35,37,9,7,11,2,-1,2,0,1,1,0,0,1.606,1.859,0,1.401,2,"grøn","12_11",-2,1,0,1,"Right_lead","Male","Female","stick",0.217655735450145,0.188490628071178,0.866003497134366,-0.133996502865634,1,2,-0.640961115694596,-3.08119295079033,2,1
"132","11_2",87,"12_2",87,"12",11,"Female","Male",24,23,"Stim\r18y19g14b27.jpeg","Stim\r04y16g13b13.jpeg",18,4,19,16,14,13,27,13,2,-3,1,0,0,1,0,1.37,1.932,4.438,0,2,"grøn","12_11",-1,0,1,1,"Left_lead","Female","Male","stick",0.23386559450319,0.213035679139688,1.09777665153377,0.0977766515337732,2,3,0.498525312206908,-1.32051126462443,0.666666666666667,-0.333333333333333
"133","11_2",89,"12_2",89,"12",11,"Female","Male",24,23,"Stim\r17y22g16b15.jpeg","Stim\r22y23g20b06.jpeg",17,22,22,23,16,20,15,6,1,-3,0,-1,1,0,0,0.795,1.69,0,1.299,2,"grøn","12_11",4,0,1,0,"Right_lead","Male","Female","stick",0.249417010923857,0.239185966125046,0.958980164340377,-0.041019835659623,1,3,-0.640961115694596,-1.32051126462443,3,2
"134","11_2",95,"12_2",95,"12",11,"Female","Male",24,23,"Stim\r11y26g25b38.jpeg","Stim\r04y39g24b15.jpeg",11,4,26,39,25,24,38,15,-1,4,0,1,1,0,0,1.353,1.633,0,1.094,2,"grøn","12_11",-1,1,0,1,"Right_lead","Male","Female","stick",0.245125893533982,0.24076167960363,0.982196030507291,-0.0178039694927088,1,4,-0.640961115694596,0.440170421541475,4,3
"135","12_1",1,"10_1",1,"10",12,"Female","Female",26,24,"Stim\r10y02g36b05.jpeg","Stim\r09y07g06b09.jpeg",10,9,2,7,36,6,5,9,2,-1,0,1,0,1,0,5.521,9.827,0,13.074,1,"rød","10_12",-1,0,1,1,"Right_lead","Female","Female","surrender",NA,NA,NA,NA,2,1,-0.169106025888688,-1.03204944184868,0.5,-0.5
"136","12_1",10,"10_1",10,"10",12,"Female","Female",26,24,"Stim\r09y17g32b21.jpeg","Stim\r10y37g07b02.jpeg",9,10,17,37,32,7,21,2,2,-3,-1,0,1,0,0,4.776,1.99,13.944,0,1,"rød","10_12",1,0,1,0,"Left_lead","Female","Female","surrender",0.181307499327251,0.210497734447707,0.861327556816496,-0.138672443183504,2,3,-0.169106025888688,1.19082627905617,0.666666666666667,-0.333333333333333
"137","12_1",14,"10_1",14,"10",12,"Female","Female",26,24,"Stim\r12y07g07b17.jpeg","Stim\r08y23g10b29.jpeg",12,8,7,23,7,10,17,29,2,-2,1,0,0,1,0,1.295,2.473,3.564,0,1,"rød","10_12",-4,0,1,1,"Left_lead","Female","Female","stick",0.189717521215171,0.207129536311609,0.915936590181696,-0.0840634098183036,2,2,-0.169106025888688,0.0793884186037444,1,0
"138","12_1",15,"10_1",15,"10",12,"Female","Female",26,24,"Stim\r22y35g09b11.jpeg","Stim\r21y03g15b37.jpeg",22,21,35,3,9,15,11,37,2,-4,-1,0,0,1,1,1.439,1.437,2.497,0,1,"rød","10_12",-1,0,1,0,"Left_lead","Female","Female","surrender",0.205369777564451,0.221107309328201,0.928824009429783,-0.0711759905702166,2,4,-0.169106025888688,2.30226413950859,0.5,-0.5
"139","12_1",19,"10_1",19,"10",12,"Female","Female",26,24,"Stim\r06y19g29b08.jpeg","Stim\r05y09g02b34.jpeg",6,5,19,9,29,2,8,34,1,-2,0,-1,0,1,1,1.589,2.853,0,6.282,1,"rød","10_12",-1,0,1,0,"Right_lead","Female","Female","stick",0.219059225423531,0.244307436569369,1.11525746563297,0.115257465632972,1,2,-1.11609977086534,0.0793884186037444,2,1
"140","12_1",25,"10_1",25,"10",12,"Female","Female",26,24,"Stim\r08y12g20b03.jpeg","Stim\r07y02g03b06.jpeg",8,7,12,2,20,3,3,6,2,-3,0,-1,0,1,1,2.541,1.121,0,3.913,1,"rød","10_12",-1,0,1,0,"Right_lead","Female","Female","stick",0.243863155264707,0.252562015388947,1.03567107181402,0.0356710718140165,2,3,-0.169106025888688,1.19082627905617,1.5,0.5
"141","12_1",30,"10_1",30,"10",12,"Female","Female",26,24,"Stim\r16y09g06b10.jpeg","Stim\r18y13g28b06.jpeg",16,18,9,13,6,28,10,6,2,-2,0,1,0,1,0,1.309,2.74,0,5.699,1,"blå","10_12",-4,0,1,1,"Right_lead","Female","Female","surrender",0.218013586241677,0.233529296110544,1.07116854566883,0.0711685456688336,2,2,-0.169106025888688,0.0793884186037444,1,0
"142","12_1",31,"10_1",31,"10",12,"Female","Female",26,24,"Stim\r17y20g40b07.jpeg","Stim\r21y24g16b04.jpeg",17,21,20,24,40,16,7,4,1,-2,-1,0,0,1,1,2.064,1.812,3.281,0,1,"blå","10_12",-3,0,1,0,"Left_lead","Female","Female","surrender",0.218624253974339,0.244555188132232,0.893966943183916,-0.106033056816084,1,2,-1.11609977086534,0.0793884186037444,0.5,-0.5
"143","12_1",33,"10_1",33,"10",12,"Female","Female",26,24,"Stim\r04y16g13b13.jpeg","Stim\r14y10g15b15.jpeg",4,14,16,10,13,15,13,15,4,-2,1,0,1,0,1,1.515,2.71,1.391,0,1,"blå","10_12",2,0,1,1,"Left_lead","Female","Female","stick",0.209060420616027,0.222374996985733,0.940125569195352,-0.0598744308046476,4,2,1.72488146406462,0.0793884186037444,2,1
"144","12_1",36,"10_1",36,"10",12,"Female","Female",26,24,"Stim\r21y24g16b04.jpeg","Stim\r09y02g05b02.jpeg",21,9,24,2,16,5,4,2,4,-1,1,0,0,1,0,1.376,2.016,1.298,0,1,"blå","10_12",-2,0,1,1,"Left_lead","Female","Female","stick",0.189406608114502,0.212002516113467,0.893416793285268,-0.106583206714732,4,1,1.72488146406462,-1.03204944184868,4,3
"145","12_1",40,"10_1",40,"10",12,"Female","Female",26,24,"Stim\r19y15g35b05.jpeg","Stim\r08y12g20b03.jpeg",19,8,15,12,35,20,5,3,1,-1,-1,0,0,1,1,5.523,1.879,1.709,0,1,"blå","10_12",-2,0,1,0,"Left_lead","Female","Female","surrender",0.152162148028191,0.154147882074326,0.987117993322947,-0.0128820066770527,1,1,-1.11609977086534,-1.03204944184868,1,0
"146","12_1",42,"10_1",42,"10",12,"Female","Female",26,24,"Stim\r04y28g27b06.jpeg","Stim\r10y03g03b07.jpeg",4,10,28,3,27,3,6,7,4,-1,1,0,1,0,1,1.446,1.895,3.406,0,1,"blå","10_12",1,0,1,1,"Left_lead","Female","Female","stick",0.156178470277836,0.154949476659019,1.00793157644231,0.00793157644231024,4,1,1.72488146406462,-1.03204944184868,4,3
"147","12_1",45,"10_1",45,"10",12,"Female","Female",26,24,"Stim\r08y23g10b29.jpeg","Stim\r07y14g27b22.jpeg",8,7,23,14,10,27,29,22,3,-2,-1,0,0,1,1,1.161,1.125,2.392,0,1,"blå","10_12",-7,0,1,0,"Left_lead","Female","Female","surrender",0.166730068591098,0.174409901548979,0.955966760546996,-0.0440332394530037,3,2,0.777887719087967,0.0793884186037444,1.5,0.5
"148","12_1",49,"10_1",49,"10",12,"Female","Female",26,24,"Stim\r10y13g07b36.jpeg","Stim\r09y06g26b32.jpeg",10,9,13,6,7,26,36,32,4,-4,0,1,0,1,0,1.684,1.548,0,11.35,1,"blå","10_12",-4,0,1,1,"Right_lead","Female","Female","surrender",0.174270793796364,0.204029981963524,1.17076405930608,0.17076405930608,4,4,1.72488146406462,2.30226413950859,1,0
"149","12_1",5,"10_1",5,"10",12,"Female","Female",26,24,"Stim\r12y07g16b25.jpeg","Stim\r09y02g05b02.jpeg",12,9,7,2,16,5,25,2,3,-2,0,1,0,1,0,1.628,1.942,0,9.918,1,"rød","10_12",-3,0,1,1,"Right_lead","Female","Female","surrender",NA,NA,NA,NA,3,2,0.777887719087967,0.0793884186037444,0.666666666666667,-0.333333333333333
"150","12_1",57,"10_1",57,"10",12,"Female","Female",26,24,"Stim\r08y23g10b29.jpeg","Stim\r10y27g22b14.jpeg",8,10,23,27,10,22,29,14,3,-1,0,1,1,0,1,1.274,1.671,0,3.096,1,"gul","10_12",4,0,1,1,"Right_lead","Female","Female","surrender",0.283170499506653,0.273075988204107,0.964351825772342,-0.0356481742276576,3,1,0.777887719087967,-1.03204944184868,0.333333333333333,-0.666666666666667
"151","12_1",62,"10_1",62,"10",12,"Female","Female",26,24,"Stim\r14y12g04b29.jpeg","Stim\r18y13g28b06.jpeg",14,18,12,13,4,28,29,6,-2,3,0,1,0,1,1,0.982,1.48,0,4.282,1,"gul","10_12",1,1,0,1,"Right_lead","Female","Female","stick",0.23417540534797,0.223852681393557,0.955918838107383,-0.0440811618926167,2,3,-0.169106025888688,1.19082627905617,1.5,0.5
"152","12_1",64,"10_1",64,"10",12,"Female","Female",26,24,"Stim\r03y06g12b09.jpeg","Stim\r10y03g03b07.jpeg",3,10,6,3,12,3,9,7,2,-2,-1,0,0,1,1,0.854,1.219,1.471,0,1,"gul","10_12",-3,0,1,0,"Left_lead","Female","Female","surrender",0.217647058105891,0.219848784662223,0.98998526846662,-0.0100147315333798,2,2,-0.169106025888688,0.0793884186037444,1,0
"153","12_1",67,"10_1",67,"10",12,"Female","Female",26,24,"Stim\r06y19g29b08.jpeg","Stim\r14y20g16b10.jpeg",6,14,19,20,29,16,8,10,-1,2,1,0,0,1,1,1.934,0.847,2.474,0,1,"gul","10_12",1,1,0,1,"Left_lead","Female","Female","surrender",0.232250944199362,0.241780377761651,0.960586406347321,-0.0394135936526793,1,2,-1.11609977086534,0.0793884186037444,0.5,-0.5
"154","12_1",7,"10_1",7,"10",12,"Female","Female",26,24,"Stim\r22y23g20b06.jpeg","Stim\r16y21g04b04.jpeg",22,16,23,21,20,4,6,4,3,-3,0,-1,0,1,1,2.329,1.93,0,3.411,1,"rød","10_12",-6,0,1,0,"Right_lead","Female","Female","stick",NA,NA,NA,NA,3,3,0.777887719087967,1.19082627905617,1,0
"155","12_1",73,"10_1",73,"10",12,"Female","Female",26,24,"Stim\r22y02g34b05.jpeg","Stim\r10y03g03b07.jpeg",22,10,2,3,34,3,5,7,3,-1,1,0,1,0,1,1.066,1.178,0.983,0,1,"gul","10_12",1,0,1,1,"Left_lead","Female","Female","stick",0.233063795137071,0.240966812012629,0.967202882382227,-0.032797117617773,3,1,0.777887719087967,-1.03204944184868,3,2
"156","12_1",80,"10_1",80,"10",12,"Female","Female",26,24,"Stim\r11y26g25b38.jpeg","Stim\r11y13g22b35.jpeg",11,11,26,13,25,22,38,35,-2,2,1,0,1,0,0,0.873,1.521,2.12,0,1,"grøn","10_12",-3,1,0,1,"Left_lead","Female","Female","surrender",0.206903974491516,0.203845154466738,1.01500560576375,0.0150056057637471,2,2,-0.169106025888688,0.0793884186037444,1,0
"157","12_1",84,"10_1",84,"10",12,"Female","Female",26,24,"Stim\r04y16g13b13.jpeg","Stim\r08y23g10b29.jpeg",4,8,16,23,13,10,13,29,3,-2,0,1,0,1,0,1.109,1.205,0,2.13,1,"grøn","10_12",-3,0,1,1,"Right_lead","Female","Female","surrender",0.20192491369989,0.203781637248492,1.00919511869329,0.00919511869328593,3,2,0.777887719087967,0.0793884186037444,0.666666666666667,-0.333333333333333
"158","12_1",85,"10_1",85,"10",12,"Female","Female",26,24,"Stim\r21y24g16b04.jpeg","Stim\r15y16g12b03.jpeg",21,15,24,16,16,12,4,3,-1,1,1,0,1,0,0,0.991,1.406,1.275,0,1,"grøn","10_12",-4,1,0,1,"Left_lead","Female","Female","surrender",0.199018349098104,0.190954081214208,1.04223145078973,0.0422314507897303,1,1,-1.11609977086534,-1.03204944184868,1,0
"159","12_1",92,"10_1",92,"10",12,"Female","Female",26,24,"Stim\r13y33g08b23.jpeg","Stim\r17y07g07b24.jpeg",13,17,33,7,8,7,23,24,1,-2,0,-1,0,1,1,1.288,0.969,0,2.683,1,"grøn","10_12",-1,0,1,0,"Right_lead","Female","Female","stick",0.25891578665174,0.254621188435813,0.98341314652357,-0.0165868534764299,1,2,-1.11609977086534,0.0793884186037444,2,1
"160","12_1",93,"10_1",93,"10",12,"Female","Female",26,24,"Stim\r14y08g21b39.jpeg","Stim\r03y06g12b09.jpeg",14,3,8,6,21,12,39,9,-1,1,1,0,1,0,0,0.926,1.57,5.309,0,1,"grøn","10_12",-9,1,0,1,"Left_lead","Female","Female","surrender",0.244902588094906,0.231862121433128,1.05624233307785,0.0562423330778461,1,1,-1.11609977086534,-1.03204944184868,1,0
"161","12_1",94,"10_1",94,"10",12,"Female","Female",26,24,"Stim\r09y02g05b02.jpeg","Stim\r03y11g01b26.jpeg",9,3,2,11,5,1,2,26,-1,1,0,-1,1,0,1,1.94,1.087,0,3.98,1,"grøn","10_12",-4,1,0,0,"Right_lead","Female","Female","surrender",0.249854287710451,0.224719053772306,0.899400429872656,-0.100599570127344,1,1,-1.11609977086534,-1.03204944184868,1,0
"162","12_1",95,"10_1",95,"10",12,"Female","Female",26,24,"Stim\r10y13g07b36.jpeg","Stim\r16y21g04b04.jpeg",10,16,13,21,7,4,36,4,-1,1,1,0,1,0,0,1.031,1.844,1.856,0,1,"grøn","10_12",-3,1,0,1,"Left_lead","Female","Female","surrender",0.244217948955074,0.226810505725061,1.07674884006967,0.076748840069667,1,1,-1.11609977086534,-1.03204944184868,1,0
"163","14_1",18,"13_1",18,"13",14,"Male","Female",23,25,"Stim\r18y13g28b06.jpeg","Stim\r12y07g16b25.jpeg",18,12,13,7,28,16,6,25,2,-2,1,0,0,1,0,2.298,1.469,2.879,0,1,"rød","13_14",-6,0,1,1,"Left_lead","Male","Female","stick",0.195499285824713,0.214880658002481,0.909804016992799,-0.0901959830072012,2,2,0.174728902734291,0.514016039001138,1,0
"164","14_1",19,"13_1",19,"13",14,"Male","Female",23,25,"Stim\r10y07g11b10.jpeg","Stim\r09y15g18b07.jpeg",10,9,7,15,11,18,10,7,-1,1,1,0,1,0,0,2.529,1.738,8.43,0,1,"rød","13_14",-1,1,0,1,"Left_lead","Male","Female","surrender",0.201048307288421,0.213813320949481,0.940298323769658,-0.0597016762303415,1,1,-1.09205564208932,-1.14225786444697,1,0
"165","14_1",2,"13_1",2,"13",14,"Male","Female",23,25,"Stim\r14y20g16b10.jpeg","Stim\r16y21g04b04.jpeg",14,16,20,21,16,4,10,4,-2,2,0,-1,0,1,0,4.215,3.494,0,8.333,1,"rød","13_14",2,1,0,0,"Right_lead","Female","Male","surrender",NA,NA,NA,NA,2,2,0.174728902734291,0.514016039001138,1,0
"166","14_1",23,"13_1",23,"13",14,"Male","Female",23,25,"Stim\r13y21g23b09.jpeg","Stim\r12y07g16b25.jpeg",13,12,21,7,23,16,9,25,3,-3,0,-1,0,1,1,1.763,1.492,0,7.612,1,"rød","13_14",-1,0,1,0,"Right_lead","Female","Male","stick",0.224353964980722,0.234365304739867,1.04462296781786,0.0446229678178642,3,3,1.4415134475579,2.17028994244925,1,0
"167","14_1",24,"13_1",24,"13",14,"Male","Female",23,25,"Stim\r10y37g07b02.jpeg","Stim\r13y21g23b09.jpeg",10,13,37,21,7,23,2,9,-1,2,0,1,0,1,1,2.93,2.909,0,6.117,1,"rød","13_14",3,1,0,1,"Right_lead","Female","Male","stick",0.222944775734326,0.233242215168694,1.04618829663288,0.0461882966328802,1,2,-1.09205564208932,0.514016039001138,2,1
"168","14_1",26,"13_1",26,"13",14,"Male","Female",23,25,"Stim\r04y28g27b06.jpeg","Stim\r10y27g22b14.jpeg",4,10,28,27,27,22,6,14,2,-3,-1,0,1,0,0,1.258,1.754,4.536,0,1,"blå","13_14",8,0,1,0,"Left_lead","Male","Female","surrender",0.23917430865135,0.244191350716004,0.979454464501125,-0.0205455354988754,2,3,0.174728902734291,2.17028994244925,0.666666666666667,-0.333333333333333
"169","14_1",32,"13_1",32,"13",14,"Male","Female",23,25,"Stim\r10y27g22b14.jpeg","Stim\r12y09g30b18.jpeg",10,12,27,9,22,30,14,18,-2,2,0,1,0,1,1,1.989,1.285,0,4.834,1,"blå","13_14",4,1,0,1,"Right_lead","Female","Male","stick",0.20986835129695,0.210806557618576,1.00447045167043,0.00447045167043081,2,2,0.174728902734291,0.514016039001138,1,0
"170","14_1",33,"13_1",33,"13",14,"Male","Female",23,25,"Stim\r18y19g14b27.jpeg","Stim\r05y28g23b30.jpeg",18,5,19,28,14,23,27,30,2,-1,-1,0,1,0,0,3.325,2.952,3.016,0,1,"blå","13_14",3,0,1,0,"Left_lead","Male","Female","surrender",0.203171002497212,0.196534550798463,1.03376735373901,0.0337673537390095,2,1,0.174728902734291,-1.14225786444697,2,1
"171","14_1",37,"13_1",37,"13",14,"Male","Female",23,25,"Stim\r09y07g06b09.jpeg","Stim\r22y35g09b11.jpeg",9,22,7,35,6,9,9,11,-2,2,-1,0,0,1,0,1.871,1.484,2.843,0,1,"blå","13_14",2,1,0,0,"Left_lead","Male","Female","stick",0.173557354865061,0.182457217193989,0.951222196272644,-0.0487778037273563,2,2,0.174728902734291,0.514016039001138,1,0
"172","14_1",39,"13_1",39,"13",14,"Male","Female",23,25,"Stim\r12y09g30b18.jpeg","Stim\r09y17g32b21.jpeg",12,9,9,17,30,32,18,21,2,-2,1,0,1,0,1,1.171,1.569,3.171,0,1,"blå","13_14",3,0,1,1,"Left_lead","Male","Female","stick",0.155041310072327,0.152575128681258,1.01616371824415,0.0161637182441514,2,2,0.174728902734291,0.514016039001138,1,0
"173","14_1",40,"13_1",40,"13",14,"Male","Female",23,25,"Stim\r15y16g12b03.jpeg","Stim\r22y23g20b06.jpeg",15,22,16,23,12,20,3,6,1,-1,0,1,1,0,1,2.078,1.308,0,4.612,1,"blå","13_14",3,0,1,1,"Right_lead","Female","Male","surrender",0.150291142584635,0.146884705132919,0.977334409778689,-0.0226655902213111,1,1,-1.09205564208932,-1.14225786444697,1,0
"174","14_1",41,"13_1",41,"13",14,"Male","Female",23,25,"Stim\r17y11g38b07.jpeg","Stim\r06y19g29b08.jpeg",17,6,11,19,38,29,7,8,1,-1,0,1,1,0,1,6.864,1.567,0,4.736,1,"blå","13_14",1,0,1,1,"Right_lead","Female","Male","surrender",0.156502294260961,0.154864588874203,0.98953558224503,-0.0104644177549702,1,1,-1.09205564208932,-1.14225786444697,1,0
"175","14_1",42,"13_1",42,"13",14,"Male","Female",23,25,"Stim\r21y01g04b27.jpeg","Stim\r15y17g24b30.jpeg",21,15,1,17,4,24,27,30,1,-2,0,-1,1,0,0,2.188,1.182,0,3.628,1,"blå","13_14",3,0,1,0,"Right_lead","Female","Male","stick",0.159230433322645,0.149518423934833,0.939006575657979,-0.0609934243420212,1,2,-1.09205564208932,0.514016039001138,2,1
"176","14_1",47,"13_1",47,"13",14,"Male","Female",23,25,"Stim\r09y06g26b32.jpeg","Stim\r05y28g23b30.jpeg",9,5,6,28,26,23,32,30,-2,2,0,1,1,0,0,2.39,2.669,0,2.252,1,"blå","13_14",-2,1,0,1,"Right_lead","Female","Male","stick",0.188387622180752,0.179778250388804,0.954299694999666,-0.0457003050003337,2,2,0.174728902734291,0.514016039001138,1,0
"177","14_1",48,"13_1",48,"13",14,"Male","Female",23,25,"Stim\r11y14g08b23.jpeg","Stim\r12y12g14b26.jpeg",11,12,14,12,8,14,23,26,3,-2,1,0,1,0,1,5.236,1.548,4.186,0,1,"blå","13_14",3,0,1,1,"Left_lead","Male","Female","stick",0.194319420895767,0.174919098153042,1.11091026050083,0.110910260500835,3,2,1.4415134475579,0.514016039001138,1.5,0.5
"178","14_1",49,"13_1",49,"13",14,"Male","Female",23,25,"Stim\r03y06g12b09.jpeg","Stim\r22y35g09b11.jpeg",3,22,6,35,12,9,9,11,2,-1,0,1,1,0,1,2.471,1.399,0,2.227,1,"blå","13_14",2,0,1,1,"Right_lead","Female","Male","surrender",0.206977818625434,0.18261287169492,0.882282328162869,-0.117717671837131,2,1,0.174728902734291,-1.14225786444697,0.5,-0.5
"179","14_1",51,"13_1",51,"13",14,"Male","Female",23,25,"Stim\r12y07g16b25.jpeg","Stim\r03y06g12b09.jpeg",12,3,7,6,16,12,25,9,3,-2,0,-1,0,1,1,2.664,1.509,0,2.332,1,"gul","13_14",-1,0,1,0,"Right_lead","Female","Male","stick",0.233953228531062,0.19694207503458,0.841801056865655,-0.158198943134345,3,2,1.4415134475579,0.514016039001138,0.666666666666667,-0.333333333333333
"180","14_1",53,"13_1",53,"13",14,"Male","Female",23,25,"Stim\r18y19g14b27.jpeg","Stim\r08y23g10b29.jpeg",18,8,19,23,14,10,27,29,-1,2,1,0,0,1,1,1.731,2.31,1.489,0,1,"gul","13_14",4,1,0,1,"Left_lead","Male","Female","surrender",0.214046316875676,0.203656739420611,1.05101514187364,0.051015141873638,1,2,-1.09205564208932,0.514016039001138,0.5,-0.5
"181","14_1",56,"13_1",56,"13",14,"Male","Female",23,25,"Stim\r16y09g06b10.jpeg","Stim\r09y07g06b09.jpeg",16,9,9,7,6,6,10,9,-1,2,0,1,1,0,0,2.831,1.127,0,2.725,1,"gul","13_14",-2,1,0,1,"Right_lead","Female","Male","stick",0.165716901262045,0.119781119700279,0.72280569325196,-0.27719430674804,1,2,-1.09205564208932,0.514016039001138,2,1
"182","14_1",63,"13_1",63,"13",14,"Male","Female",23,25,"Stim\r13y21g23b09.jpeg","Stim\r18y19g14b27.jpeg",13,18,21,19,23,14,9,27,-4,1,-1,0,1,0,1,1.667,0.863,1.729,0,1,"gul","13_14",-2,1,0,0,"Left_lead","Male","Female","stick",0.211490915217064,0.196037452948843,1.07882913206516,0.0788291320651553,4,1,2.7082979923815,-1.14225786444697,4,3
"183","14_1",66,"13_1",66,"13",14,"Male","Female",23,25,"Stim\r09y07g06b09.jpeg","Stim\r07y14g27b22.jpeg",9,7,7,14,6,27,9,22,2,-2,-1,0,1,0,0,2.58,1.909,2.195,0,1,"gul","13_14",7,0,1,0,"Left_lead","Male","Female","surrender",0.222069520201299,0.205991421101525,1.07805227525398,0.0780522752539765,2,2,0.174728902734291,0.514016039001138,1,0
"184","14_1",67,"13_1",67,"13",14,"Male","Female",23,25,"Stim\r07y14g27b22.jpeg","Stim\r11y13g22b35.jpeg",7,11,14,13,27,22,22,35,-1,1,-1,0,1,0,1,1.127,1.223,1.243,0,1,"gul","13_14",-1,1,0,0,"Left_lead","Male","Female","stick",0.23821929281802,0.221798399120183,1.07403522190861,0.0740352219086091,1,1,-1.09205564208932,-1.14225786444697,1,0
"185","14_1",69,"13_1",69,"13",14,"Male","Female",23,25,"Stim\r17y22g16b15.jpeg","Stim\r14y20g16b10.jpeg",17,14,22,20,16,16,15,10,-3,2,0,-1,1,0,1,1.526,1.006,0,3.112,1,"gul","13_14",-2,1,0,0,"Right_lead","Female","Male","surrender",0.242298171353028,0.20682316253502,0.853589448818741,-0.146410551181259,3,2,1.4415134475579,0.514016039001138,0.666666666666667,-0.333333333333333
"186","14_1",7,"13_1",7,"13",14,"Male","Female",23,25,"Stim\r03y06g12b09.jpeg","Stim\r07y02g03b06.jpeg",3,7,6,2,12,3,9,6,1,-2,-1,0,1,0,0,3.281,2.461,6.032,0,1,"rød","13_14",4,0,1,0,"Left_lead","Male","Female","surrender",NA,NA,NA,NA,1,2,-1.09205564208932,0.514016039001138,0.5,-0.5
"187","14_1",70,"13_1",70,"13",14,"Male","Female",23,25,"Stim\r21y03g15b37.jpeg","Stim\r03y11g01b26.jpeg",21,3,3,11,15,1,37,26,2,-1,1,0,1,0,1,4.022,1.744,2.412,0,1,"gul","13_14",8,0,1,1,"Left_lead","Male","Female","stick",0.259379135380063,0.168349987057242,1.54071372332134,0.540713723321342,2,1,0.174728902734291,-1.14225786444697,2,1
"188","14_1",71,"13_1",71,"13",14,"Male","Female",23,25,"Stim\r11y26g25b38.jpeg","Stim\r05y28g23b30.jpeg",11,5,26,28,25,23,38,30,-2,1,-1,0,0,1,0,1.303,1.943,1.113,0,1,"gul","13_14",2,1,0,0,"Left_lead","Male","Female","stick",0.256366580653179,0.16140142998613,1.58837862015975,0.588378620159746,2,1,0.174728902734291,-1.14225786444697,2,1
"189","14_1",75,"13_1",75,"13",14,"Male","Female",23,25,"Stim\r12y12g14b26.jpeg","Stim\r15y16g12b03.jpeg",12,15,12,16,14,12,26,3,-2,1,0,-1,1,0,1,2.029,0.974,0,4.346,1,"grøn","13_14",-2,1,0,0,"Right_lead","Female","Male","surrender",0.254170709656786,0.206130882411832,0.8109938501182,-0.1890061498818,2,1,0.174728902734291,-1.14225786444697,0.5,-0.5
"190","14_1",77,"13_1",77,"13",14,"Male","Female",23,25,"Stim\r14y12g04b29.jpeg","Stim\r12y07g07b17.jpeg",14,12,12,7,4,7,29,17,1,-1,0,-1,1,0,0,1.311,1.407,0,3.642,1,"grøn","13_14",3,0,1,0,"Right_lead","Female","Male","stick",0.213349633057968,0.196150080586162,0.919383257307348,-0.0806167426926523,1,1,-1.09205564208932,-1.14225786444697,1,0
"191","14_1",89,"13_1",89,"13",14,"Male","Female",23,25,"Stim\r17y22g16b15.jpeg","Stim\r09y15g18b07.jpeg",17,9,22,15,16,18,15,7,2,-2,0,1,1,0,1,2.062,1.306,0,2.071,1,"grøn","13_14",2,0,1,1,"Right_lead","Female","Male","surrender",0.257318101824368,0.255682900617769,0.993645215027604,-0.00635478497239617,2,2,0.174728902734291,0.514016039001138,1,0
"192","15_2",1,"13_2",1,"13",15,"Male","Male",23,20,"Stim\r08y12g20b03.jpeg","Stim\r10y37g07b02.jpeg",8,10,12,37,20,7,3,2,-1,2,0,1,0,1,1,1.369,5.818,0,2.19,2,"rød","13_15",2,1,0,1,"Right_lead","Male","Male","stick",NA,NA,NA,NA,1,2,-1.46427699060242,-0.445023402515898,2,1
"193","15_2",14,"13_2",14,"13",15,"Male","Male",23,20,"Stim\r18y19g14b27.jpeg","Stim\r10y03g03b07.jpeg",18,10,19,3,14,3,27,7,2,-2,1,0,0,1,0,2.281,2.061,5.082,0,2,"rød","13_15",-8,0,1,1,"Left_lead","Male","Male","stick",0.195616806523838,0.202785025492204,0.964651142504398,-0.0353488574956023,2,2,-0.306476579428413,-0.445023402515898,1,0
"194","15_2",18,"13_2",18,"13",15,"Male","Male",23,20,"Stim\r12y12g14b26.jpeg","Stim\r08y12g20b03.jpeg",12,8,12,12,14,20,26,3,-2,3,1,0,1,0,0,2.349,1.345,1.034,0,2,"rød","13_15",-4,1,0,1,"Left_lead","Male","Male","surrender",0.20350937061193,0.220389289759714,0.923408623140499,-0.0765913768595009,2,3,-0.306476579428413,0.930503477987786,0.666666666666667,-0.333333333333333
"195","15_2",19,"13_2",19,"13",15,"Male","Male",23,20,"Stim\r17y20g40b07.jpeg","Stim\r16y09g06b10.jpeg",17,16,20,9,40,6,7,10,-2,2,0,-1,1,0,1,1.19,1.602,0,3.355,2,"rød","13_15",-1,1,0,0,"Right_lead","Male","Male","surrender",0.209741244541993,0.215223621766737,1.02613876558574,0.0261387655857375,2,2,-0.306476579428413,-0.445023402515898,1,0
"196","15_2",2,"13_2",2,"13",15,"Male","Male",23,20,"Stim\r11y13g22b35.jpeg","Stim\r09y07g06b09.jpeg",11,9,13,7,22,6,35,9,1,-3,-1,0,0,1,1,2.324,2.1,1.507,0,2,"rød","13_15",-2,0,1,0,"Left_lead","Male","Male","surrender",NA,NA,NA,NA,1,3,-1.46427699060242,0.930503477987786,0.333333333333333,-0.666666666666667
"197","15_2",28,"13_2",28,"13",15,"Male","Male",23,20,"Stim\r20y14g02b19.jpeg","Stim\r14y10g15b15.jpeg",20,14,14,10,2,15,19,15,2,-2,-1,0,0,1,1,1.05,1.207,1.782,0,2,"blå","13_15",-4,0,1,0,"Left_lead","Male","Male","surrender",0.174120243277749,0.185161758095718,0.940368276195233,-0.0596317238047673,2,2,-0.306476579428413,-0.445023402515898,1,0
"198","15_2",30,"13_2",30,"13",15,"Male","Male",23,20,"Stim\r17y11g38b07.jpeg","Stim\r10y02g36b05.jpeg",17,10,11,2,38,36,7,5,-3,2,0,-1,1,0,1,1.836,2.132,0,1.224,2,"blå","13_15",-2,1,0,0,"Right_lead","Male","Male","surrender",0.190952582486234,0.197105224507103,1.03222078455688,0.0322207845568809,3,2,0.851323831745592,-0.445023402515898,0.666666666666667,-0.333333333333333
"199","15_2",32,"13_2",32,"13",15,"Male","Male",23,20,"Stim\r10y03g03b07.jpeg","Stim\r03y03g02b05.jpeg",10,3,3,3,3,2,7,5,2,-2,-1,0,0,1,1,1.808,3.471,4.164,0,2,"blå","13_15",-2,0,1,0,"Left_lead","Male","Male","surrender",0.198694137849854,0.210218313616735,0.945179962827161,-0.0548200371728391,2,2,-0.306476579428413,-0.445023402515898,1,0
"200","15_2",36,"13_2",36,"13",15,"Male","Male",23,20,"Stim\r22y02g34b05.jpeg","Stim\r10y27g22b14.jpeg",22,10,2,27,34,22,5,14,2,-2,0,1,1,0,1,1.42,2.496,0,1.27,2,"blå","13_15",9,0,1,1,"Right_lead","Male","Male","surrender",0.176583976508485,0.148324889547924,0.839967999819037,-0.160032000180963,2,2,-0.306476579428413,-0.445023402515898,1,0
"201","15_2",39,"13_2",39,"13",15,"Male","Male",23,20,"Stim\r21y01g04b27.jpeg","Stim\r17y07g07b24.jpeg",21,17,1,7,4,7,27,24,-4,2,-1,0,1,0,1,1.68,1.776,1.655,0,2,"blå","13_15",-3,1,0,0,"Left_lead","Male","Male","stick",0.158272146778508,0.144148220433515,1.09798196816108,0.0979819681610801,4,2,2.0091242429196,-0.445023402515898,2,1
"202","15_2",40,"13_2",40,"13",15,"Male","Male",23,20,"Stim\r02y10g14b11.jpeg","Stim\r20y14g02b19.jpeg",2,20,10,14,14,2,11,19,-4,3,0,1,0,1,1,2.308,1.278,0,1.516,2,"blå","13_15",8,1,0,1,"Right_lead","Male","Male","stick",0.149779859295323,0.147853856732116,0.987141111146263,-0.0128588888537374,4,3,2.0091242429196,0.930503477987786,0.75,-0.25
"203","15_2",42,"13_2",42,"13",15,"Male","Male",23,20,"Stim\r01y27g01b01.jpeg","Stim\r09y02g05b02.jpeg",1,9,27,2,1,5,1,2,4,-2,0,1,1,0,1,2.187,1.55,0,0.929,2,"blå","13_15",1,0,1,1,"Right_lead","Male","Male","surrender",0.149236886836601,0.143934638305208,0.964470925092411,-0.0355290749075891,4,2,2.0091242429196,-0.445023402515898,0.5,-0.5
"204","15_2",43,"13_2",43,"13",15,"Male","Male",23,20,"Stim\r22y23g20b06.jpeg","Stim\r08y12g20b03.jpeg",22,8,23,12,20,20,6,3,1,-1,0,-1,0,1,1,1.314,0.884,0,1.693,2,"blå","13_15",-3,0,1,0,"Right_lead","Male","Male","stick",0.143906332191382,0.141118692368494,0.980628789710374,-0.0193712102896256,1,1,-1.46427699060242,-1.82055028301958,1,0
"205","15_2",45,"13_2",45,"13",15,"Male","Male",23,20,"Stim\r12y07g07b17.jpeg","Stim\r13y33g08b23.jpeg",12,13,7,33,7,8,17,23,2,-3,-1,0,1,0,0,1.853,1.368,1.425,0,2,"blå","13_15",6,0,1,0,"Left_lead","Male","Male","surrender",0.166895611113356,0.160593497787791,1.03924264314794,0.0392426431479351,2,3,-0.306476579428413,0.930503477987786,0.666666666666667,-0.333333333333333
"206","15_2",46,"13_2",46,"13",15,"Male","Male",23,20,"Stim\r16y09g06b10.jpeg","Stim\r06y36g16b14.jpeg",16,6,9,36,6,16,10,14,4,-3,1,0,1,0,1,1.529,2.109,1.574,0,2,"blå","13_15",4,0,1,1,"Left_lead","Male","Male","stick",0.174361917664345,0.172523124233673,1.01065824328675,0.0106582432867461,4,3,2.0091242429196,0.930503477987786,1.33333333333333,0.333333333333333
"207","15_2",49,"13_2",49,"13",15,"Male","Male",23,20,"Stim\r12y09g30b18.jpeg","Stim\r12y07g07b17.jpeg",12,12,9,7,30,7,18,17,-1,2,1,0,1,0,0,2.475,1.07,1.122,0,2,"gul","13_15",-2,1,0,1,"Left_lead","Male","Male","surrender",0.166420459468772,0.163978134177752,1.01489421320267,0.014894213202673,1,2,-1.46427699060242,-0.445023402515898,0.5,-0.5
"208","15_2",55,"13_2",55,"13",15,"Male","Male",23,20,"Stim\r15y05g12b10.jpeg","Stim\r09y06g26b32.jpeg",15,9,5,6,12,26,10,32,-2,2,0,-1,0,1,0,1.68,3.125,0,1.136,2,"gul","13_15",1,1,0,0,"Right_lead","Male","Male","surrender",0.230287894127571,0.193919665651529,0.842074944435006,-0.157925055564994,2,2,-0.306476579428413,-0.445023402515898,1,0
"209","15_2",6,"13_2",6,"13",15,"Male","Male",23,20,"Stim\r15y16g12b03.jpeg","Stim\r18y19g14b27.jpeg",15,18,16,19,12,14,3,27,-3,3,1,0,0,1,1,1.414,1.327,1.397,0,2,"rød","13_15",3,1,0,1,"Left_lead","Male","Male","surrender",NA,NA,NA,NA,3,3,0.851323831745592,0.930503477987786,1,0
"210","15_2",65,"13_2",65,"13",15,"Male","Male",23,20,"Stim\r06y14g31b25.jpeg","Stim\r19y10g06b15.jpeg",6,19,14,10,31,6,25,15,-2,3,0,1,1,0,0,1.336,1.415,0,1.558,2,"gul","13_15",-4,1,0,1,"Right_lead","Male","Male","stick",0.210183233796105,0.20066782773211,0.954728044230085,-0.0452719557699152,2,3,-0.306476579428413,0.930503477987786,1.5,0.5
"211","15_2",66,"13_2",66,"13",15,"Male","Male",23,20,"Stim\r18y19g14b27.jpeg","Stim\r15y16g12b03.jpeg",18,15,19,16,14,12,27,3,-3,2,0,1,1,0,0,2.294,1.321,0,3.185,2,"gul","13_15",-3,1,0,1,"Right_lead","Male","Male","stick",0.216613100649044,0.201789760810499,0.931567666987226,-0.0684323330127743,3,2,0.851323831745592,-0.445023402515898,0.666666666666667,-0.333333333333333
"212","15_2",67,"13_2",67,"13",15,"Male","Male",23,20,"Stim\r07y02g03b06.jpeg","Stim\r21y01g04b27.jpeg",7,21,2,1,3,4,6,27,2,-1,-1,0,0,1,1,3.598,2.388,1.773,0,2,"gul","13_15",-1,0,1,0,"Left_lead","Male","Male","surrender",0.239262569516313,0.230054284942956,1.04002657275278,0.0400265727527758,2,1,-0.306476579428413,-1.82055028301958,2,1
"213","15_2",72,"13_2",72,"13",15,"Male","Male",23,20,"Stim\r22y35g09b11.jpeg","Stim\r04y39g24b15.jpeg",22,4,35,39,9,24,11,15,-3,2,-1,0,0,1,0,1.343,1.255,1.297,0,2,"gul","13_15",4,1,0,0,"Left_lead","Male","Male","stick",0.237236704407319,0.228387779315391,1.03874517769056,0.0387451776905634,3,2,0.851323831745592,-0.445023402515898,1.5,0.5
"214","15_2",73,"13_2",73,"13",15,"Male","Male",23,20,"Stim\r14y12g04b29.jpeg","Stim\r01y27g01b01.jpeg",14,1,12,27,4,1,29,1,1,-3,-1,0,0,1,1,1.815,1.342,1.08,0,2,"grøn","13_15",-3,0,1,0,"Left_lead","Male","Male","surrender",0.235184729337121,0.237284355711418,0.991151433612208,-0.0088485663877923,1,3,-1.46427699060242,0.930503477987786,0.333333333333333,-0.666666666666667
"215","15_2",75,"13_2",75,"13",15,"Male","Male",23,20,"Stim\r11y13g22b35.jpeg","Stim\r08y12g20b03.jpeg",11,8,13,12,22,20,35,3,-2,3,0,1,1,0,0,1.156,1.585,0,1.336,2,"grøn","13_15",-2,1,0,1,"Right_lead","Male","Male","stick",0.237387712644129,0.24509404258946,1.03246305320311,0.0324630532031103,2,3,-0.306476579428413,0.930503477987786,1.5,0.5
"216","15_2",76,"13_2",76,"13",15,"Male","Male",23,20,"Stim\r12y07g16b25.jpeg","Stim\r21y03g15b37.jpeg",12,21,7,3,16,15,25,37,-3,1,0,-1,1,0,1,1.233,1.129,0,1.02,2,"grøn","13_15",-1,1,0,0,"Right_lead","Male","Male","surrender",0.228811861487645,0.23774344723416,1.03903462735037,0.0390346273503712,3,1,0.851323831745592,-1.82055028301958,0.333333333333333,-0.666666666666667
"217","15_2",77,"13_2",77,"13",15,"Male","Male",23,20,"Stim\r04y28g27b06.jpeg","Stim\r09y15g18b07.jpeg",4,9,28,15,27,18,6,7,3,-3,-1,0,0,1,1,2.501,1.229,4.585,0,2,"grøn","13_15",-9,0,1,0,"Left_lead","Male","Male","surrender",0.199022957505116,0.218885786549863,0.909254824820605,-0.0907451751793951,3,3,0.851323831745592,0.930503477987786,1,0
"218","15_2",78,"13_2",78,"13",15,"Male","Male",23,20,"Stim\r06y14g31b25.jpeg","Stim\r02y19g24b04.jpeg",6,2,14,19,31,24,25,4,-2,2,1,0,1,0,0,1.118,1.196,2.081,0,2,"grøn","13_15",-7,1,0,1,"Left_lead","Male","Male","surrender",0.195873960356146,0.205623654619136,0.952584763260585,-0.0474152367394149,2,2,-0.306476579428413,-0.445023402515898,1,0
"219","15_2",79,"13_2",79,"13",15,"Male","Male",23,20,"Stim\r17y07g07b24.jpeg","Stim\r03y11g01b26.jpeg",17,3,7,11,7,1,24,26,-2,1,-1,0,1,0,1,1.126,2.044,2.503,0,2,"grøn","13_15",-6,1,0,0,"Left_lead","Male","Male","stick",0.195800837963953,0.19595596225878,0.999208371651269,-0.000791628348731477,2,1,-0.306476579428413,-1.82055028301958,2,1
"220","15_2",8,"13_2",8,"13",15,"Male","Male",23,20,"Stim\r20y04g39b23.jpeg","Stim\r13y24g05b28.jpeg",20,13,4,24,39,5,23,28,-2,3,1,0,1,0,0,2.194,1.223,1.033,0,2,"rød","13_15",-7,1,0,1,"Left_lead","Male","Male","surrender",NA,NA,NA,NA,2,3,-0.306476579428413,0.930503477987786,0.666666666666667,-0.333333333333333
"221","15_2",83,"13_2",83,"13",15,"Male","Male",23,20,"Stim\r22y35g09b11.jpeg","Stim\r08y23g10b29.jpeg",22,8,35,23,9,10,11,29,2,-3,-1,0,1,0,0,2.074,2.818,1.283,0,2,"grøn","13_15",1,0,1,0,"Left_lead","Male","Male","surrender",0.193763331255233,0.179579411201658,1.07898411047605,0.0789841104760458,2,3,-0.306476579428413,0.930503477987786,0.666666666666667,-0.333333333333333
"222","15_2",9,"13_2",9,"13",15,"Male","Male",23,20,"Stim\r03y11g01b26.jpeg","Stim\r01y27g01b01.jpeg",3,1,11,27,1,1,26,1,2,-4,-1,0,0,1,1,1.916,1.762,1.135,0,2,"rød","13_15",-2,0,1,0,"Left_lead","Male","Male","surrender",NA,NA,NA,NA,2,4,-0.306476579428413,2.30603035849147,0.5,-0.5
"223","15_2",92,"13_2",92,"13",15,"Male","Male",23,20,"Stim\r04y39g24b15.jpeg","Stim\r10y27g22b14.jpeg",4,10,39,27,24,22,15,14,-2,3,1,0,1,0,0,2.124,1.487,1.206,0,2,"grøn","13_15",-2,1,0,1,"Left_lead","Male","Male","surrender",0.254508224567897,0.247513395994765,1.02826040402791,0.0282604040279095,2,3,-0.306476579428413,0.930503477987786,0.666666666666667,-0.333333333333333
"224","15_2",94,"13_2",94,"13",15,"Male","Male",23,20,"Stim\r14y20g16b10.jpeg","Stim\r07y06g08b05.jpeg",14,7,20,6,16,8,10,5,-2,2,0,-1,1,0,1,1.814,1.154,0,1.23,2,"grøn","13_15",-8,1,0,0,"Right_lead","Male","Male","surrender",0.248207097365949,0.231818872927476,0.933973586523552,-0.0660264134764476,2,2,-0.306476579428413,-0.445023402515898,1,0
"225","15_2",95,"13_2",95,"13",15,"Male","Male",23,20,"Stim\r08y12g20b03.jpeg","Stim\r03y06g12b09.jpeg",8,3,12,6,20,12,3,9,2,-2,0,-1,0,1,1,0.883,0.928,0,1.137,2,"grøn","13_15",-8,0,1,0,"Right_lead","Male","Male","stick",0.233201488280816,0.230561008540199,0.988677260337904,-0.0113227396620958,2,2,-0.306476579428413,-0.445023402515898,1,0
"226","16_1",12,"15_1",12,"15",16,"Male","Female",20,21,"Stim\r15y05g12b10.jpeg","Stim\r13y33g08b23.jpeg",15,13,5,33,12,8,10,23,3,-3,1,0,0,1,0,2.038,2.315,3.075,0,1,"rød","15_16",-2,0,1,1,"Left_lead","Male","Female","stick",0.201058023869095,0.209718479293401,0.958704376202395,-0.0412956237976047,3,3,0.695968773397057,-0.279950398078262,1,0
"227","16_1",14,"15_1",14,"15",16,"Male","Female",20,21,"Stim\r09y02g05b02.jpeg","Stim\r08y12g20b03.jpeg",9,8,2,12,5,20,2,3,1,-4,0,-1,0,1,1,3.085,1.649,0,2.083,1,"rød","15_16",-1,0,1,0,"Right_lead","Female","Male","stick",0.202619318313665,0.209381373530048,1.03337320090039,0.0333732009003949,1,4,-1.86812670753947,0.808745594448314,4,3
"228","16_1",15,"15_1",15,"15",16,"Male","Female",20,21,"Stim\r07y14g27b22.jpeg","Stim\r06y19g29b08.jpeg",7,6,14,19,27,29,22,8,-2,2,0,-1,1,0,1,2.527,1.757,0,3.01,1,"rød","15_16",-1,1,0,0,"Right_lead","Female","Male","surrender",0.219079946711896,0.219439213486717,1.00163988890911,0.00163988890910871,2,2,-0.586078967071206,-1.36864639060484,1,0
"229","16_1",16,"15_1",16,"15",16,"Male","Female",20,21,"Stim\r11y10g06b19.jpeg","Stim\r14y20g16b10.jpeg",11,14,10,20,6,16,19,10,4,-2,0,1,1,0,1,1.654,1.881,0,4.922,1,"rød","15_16",3,0,1,1,"Right_lead","Female","Male","surrender",0.216428692533404,0.209359287210908,0.967336099295592,-0.0326639007044082,4,2,1.97801651386532,-1.36864639060484,0.5,-0.5
"230","16_1",17,"15_1",17,"15",16,"Male","Female",20,21,"Stim\r17y20g40b07.jpeg","Stim\r14y20g16b10.jpeg",17,14,20,20,40,16,7,10,-2,4,1,0,1,0,0,2.774,3.386,1.804,0,1,"rød","15_16",-3,1,0,1,"Left_lead","Male","Female","surrender",0.219272440526961,0.206152249393995,1.06364321112932,0.0636432111293186,2,4,-0.586078967071206,0.808745594448314,0.5,-0.5
"231","16_1",18,"15_1",18,"15",16,"Male","Female",20,21,"Stim\r08y23g10b29.jpeg","Stim\r11y26g25b38.jpeg",8,11,23,26,10,25,29,38,-2,2,-1,0,0,1,0,3.816,3.764,1.897,0,1,"rød","15_16",3,1,0,0,"Left_lead","Male","Female","stick",0.227959281184696,0.226371162428081,1.00701555242099,0.00701555242099161,2,2,-0.586078967071206,-1.36864639060484,1,0
"232","16_1",2,"15_1",2,"15",16,"Male","Female",20,21,"Stim\r14y12g04b29.jpeg","Stim\r17y12g19b18.jpeg",14,17,12,12,4,19,29,18,2,-2,0,-1,1,0,0,6.732,4.094,0,7.105,1,"rød","15_16",3,0,1,0,"Right_lead","Female","Male","stick",NA,NA,NA,NA,2,2,-0.586078967071206,-1.36864639060484,1,0
"233","16_1",23,"15_1",23,"15",16,"Male","Female",20,21,"Stim\r05y28g23b30.jpeg","Stim\r04y39g24b15.jpeg",5,4,28,39,23,24,30,15,-2,2,-1,0,1,0,1,2.831,3.011,6.564,0,1,"rød","15_16",-1,1,0,0,"Left_lead","Male","Female","stick",0.237363380492808,0.229586191666704,1.03387481089191,0.0338748108919127,2,2,-0.586078967071206,-1.36864639060484,1,0
"234","16_1",25,"15_1",25,"15",16,"Male","Female",20,21,"Stim\r05y40g33b16.jpeg","Stim\r07y14g27b22.jpeg",5,7,40,14,33,27,16,22,2,-2,0,-1,1,0,0,3.012,2.992,0,3.024,1,"rød","15_16",2,0,1,0,"Right_lead","Female","Male","stick",0.24137608616388,0.229177515514727,0.949462389406418,-0.0505376105935817,2,2,-0.586078967071206,-1.36864639060484,1,0
"235","16_1",3,"15_1",3,"15",16,"Male","Female",20,21,"Stim\r21y03g15b37.jpeg","Stim\r18y19g14b27.jpeg",21,18,3,19,15,14,37,27,3,-4,-1,0,0,1,1,3.184,2.747,3.781,0,1,"rød","15_16",-3,0,1,0,"Left_lead","Male","Female","surrender",NA,NA,NA,NA,3,4,0.695968773397057,0.808745594448314,0.75,-0.25
"236","16_1",30,"15_1",30,"15",16,"Male","Female",20,21,"Stim\r06y14g31b25.jpeg","Stim\r20y04g39b23.jpeg",6,20,14,4,31,39,25,23,3,-4,1,0,0,1,0,1.437,1.616,1.698,0,1,"blå","15_16",-2,0,1,1,"Left_lead","Male","Female","stick",0.22612445138381,0.225623795027429,1.00221898739147,0.00221898739146797,3,4,0.695968773397057,0.808745594448314,0.75,-0.25
"237","16_1",32,"15_1",32,"15",16,"Male","Female",20,21,"Stim\r17y07g07b24.jpeg","Stim\r03y11g01b26.jpeg",17,3,7,11,7,1,24,26,-3,4,1,0,0,1,1,2.084,2.362,3.35,0,1,"blå","15_16",2,1,0,1,"Left_lead","Male","Female","surrender",0.219602242120328,0.223124596131607,0.984213510870844,-0.0157864891291564,3,4,0.695968773397057,0.808745594448314,0.75,-0.25
"238","16_1",35,"15_1",35,"15",16,"Male","Female",20,21,"Stim\r06y36g16b14.jpeg","Stim\r05y40g33b16.jpeg",6,5,36,40,16,33,14,16,4,-4,1,0,1,0,1,1.858,1.571,2.275,0,1,"blå","15_16",2,0,1,1,"Left_lead","Male","Female","stick",0.21725365431969,0.230117543192998,0.944098617190089,-0.055901382809911,4,4,1.97801651386532,0.808745594448314,1,0
"239","16_1",36,"15_1",36,"15",16,"Male","Female",20,21,"Stim\r03y11g01b26.jpeg","Stim\r08y23g10b29.jpeg",3,8,11,23,1,10,26,29,-2,4,0,1,0,1,1,1.432,1.294,0,3.94,1,"blå","15_16",3,1,0,1,"Right_lead","Female","Male","stick",0.188297236187993,0.208725118631861,1.10848742582431,0.108487425824313,2,4,-0.586078967071206,0.808745594448314,2,1
"240","16_1",38,"15_1",38,"15",16,"Male","Female",20,21,"Stim\r08y12g20b03.jpeg","Stim\r10y02g36b05.jpeg",8,10,12,2,20,36,3,5,2,-2,0,1,1,0,1,1.545,4.708,0,2.781,1,"blå","15_16",2,0,1,1,"Right_lead","Female","Male","surrender",0.164562919410723,0.168107265908973,1.02153794129894,0.0215379412989378,2,2,-0.586078967071206,-1.36864639060484,1,0
"241","16_1",39,"15_1",39,"15",16,"Male","Female",20,21,"Stim\r06y19g29b08.jpeg","Stim\r10y02g36b05.jpeg",6,10,19,2,29,36,8,5,-1,4,1,0,1,0,0,2.299,3.911,2.182,0,1,"blå","15_16",-3,1,0,1,"Left_lead","Male","Female","surrender",0.156085869413475,0.156902090142312,0.994797897669198,-0.00520210233080176,1,4,-1.86812670753947,0.808745594448314,0.25,-0.75
"242","16_1",46,"15_1",46,"15",16,"Male","Female",20,21,"Stim\r14y12g04b29.jpeg","Stim\r09y06g26b32.jpeg",14,9,12,6,4,26,29,32,-4,4,0,-1,0,1,0,1.766,2.361,0,5.112,1,"blå","15_16",3,1,0,0,"Right_lead","Female","Male","surrender",0.190765754973479,0.18870178062325,0.989180582487061,-0.0108194175129386,4,4,1.97801651386532,0.808745594448314,1,0
"243","16_1",48,"15_1",48,"15",16,"Male","Female",20,21,"Stim\r17y20g40b07.jpeg","Stim\r05y40g33b16.jpeg",17,5,20,40,40,33,7,16,2,-2,1,0,1,0,1,2.028,1.858,2.831,0,1,"blå","15_16",9,0,1,1,"Left_lead","Male","Female","stick",0.190243430029556,0.178497948438237,1.06580177360068,0.0658017736006815,2,2,-0.586078967071206,-1.36864639060484,1,0
"244","16_1",49,"15_1",49,"15",16,"Male","Female",20,21,"Stim\r10y13g07b36.jpeg","Stim\r21y03g15b37.jpeg",10,21,13,3,7,15,36,37,-3,4,1,0,0,1,1,1.781,1.277,1.639,0,1,"blå","15_16",1,1,0,1,"Left_lead","Male","Female","surrender",0.199703114599756,0.190121143405931,1.05039929290435,0.0503992929043477,3,4,0.695968773397057,0.808745594448314,0.75,-0.25
"245","16_1",5,"15_1",5,"15",16,"Male","Female",20,21,"Stim\r01y27g01b01.jpeg","Stim\r04y16g13b13.jpeg",1,4,27,16,1,13,1,13,-2,4,1,0,0,1,1,3.65,1.962,2.554,0,1,"rød","15_16",3,1,0,1,"Left_lead","Male","Female","surrender",NA,NA,NA,NA,2,4,-0.586078967071206,0.808745594448314,0.5,-0.5
"246","16_1",57,"15_1",57,"15",16,"Male","Female",20,21,"Stim\r22y23g20b06.jpeg","Stim\r01y27g01b01.jpeg",22,1,23,27,20,1,6,1,-3,4,0,1,0,1,1,2.171,1.249,0,1.813,1,"gul","15_16",4,1,0,1,"Right_lead","Female","Male","stick",0.224661034924449,0.191042459025999,0.850358670742545,-0.149641329257455,3,4,0.695968773397057,0.808745594448314,1.33333333333333,0.333333333333333
"247","16_1",6,"15_1",6,"15",16,"Male","Female",20,21,"Stim\r16y09g06b10.jpeg","Stim\r17y20g40b07.jpeg",16,17,9,20,6,40,10,7,3,-4,0,1,1,0,1,2.166,2.863,0,3.119,1,"rød","15_16",1,0,1,1,"Right_lead","Female","Male","surrender",NA,NA,NA,NA,3,4,0.695968773397057,0.808745594448314,1.33333333333333,0.333333333333333
"248","16_1",63,"15_1",63,"15",16,"Male","Female",20,21,"Stim\r11y10g06b19.jpeg","Stim\r12y07g07b17.jpeg",11,12,10,7,6,7,19,17,2,-4,-1,0,0,1,1,2.581,1.692,3.593,0,1,"gul","15_16",-3,0,1,0,"Left_lead","Male","Female","surrender",0.21633652941125,0.230020245847007,0.9405108172745,-0.0594891827254999,2,4,-0.586078967071206,0.808745594448314,0.5,-0.5
"249","16_1",66,"15_1",66,"15",16,"Male","Female",20,21,"Stim\r16y09g06b10.jpeg","Stim\r12y07g16b25.jpeg",16,12,9,7,6,16,10,25,2,-4,0,-1,0,1,1,2.1,1.429,0,1.483,1,"gul","15_16",-2,0,1,0,"Right_lead","Female","Male","stick",0.221047129937404,0.235049990088678,1.06334784873814,0.0633478487381371,2,4,-0.586078967071206,0.808745594448314,2,1
"250","16_1",67,"15_1",67,"15",16,"Male","Female",20,21,"Stim\r17y07g07b24.jpeg","Stim\r08y09g09b11.jpeg",17,8,7,9,7,9,24,11,-3,3,0,-1,0,1,0,1.972,2.418,0,2.447,1,"gul","15_16",2,1,0,0,"Right_lead","Female","Male","surrender",0.23645305456379,0.2484286558301,1.05064684526238,0.0506468452623825,3,3,0.695968773397057,-0.279950398078262,1,0
"251","16_1",70,"15_1",70,"15",16,"Male","Female",20,21,"Stim\r17y12g19b18.jpeg","Stim\r15y16g12b03.jpeg",17,15,12,16,19,12,18,3,-2,4,0,1,0,1,1,1.787,1.183,0,0.98,1,"gul","15_16",4,1,0,1,"Right_lead","Female","Male","stick",0.21222566133144,0.261588304639527,1.23259507355708,0.232595073557084,2,4,-0.586078967071206,0.808745594448314,2,1
"252","16_1",71,"15_1",71,"15",16,"Male","Female",20,21,"Stim\r04y39g24b15.jpeg","Stim\r05y40g33b16.jpeg",4,5,39,40,24,33,15,16,-3,4,0,1,0,1,1,1.949,1.23,0,0.847,1,"gul","15_16",1,1,0,1,"Right_lead","Female","Male","stick",0.190669028464257,0.259858830007858,1.36287907952797,0.362879079527965,3,4,0.695968773397057,0.808745594448314,1.33333333333333,0.333333333333333
"253","16_1",73,"15_1",73,"15",16,"Male","Female",20,21,"Stim\r12y07g07b17.jpeg","Stim\r14y10g15b15.jpeg",12,14,7,10,7,15,17,15,-3,2,0,1,0,1,1,2.238,1.185,0,1.061,1,"gul","15_16",3,1,0,1,"Right_lead","Female","Male","stick",0.210203352630194,0.240381568680702,1.14356676843114,0.143566768431139,3,2,0.695968773397057,-1.36864639060484,0.666666666666667,-0.333333333333333
"254","16_1",78,"15_1",78,"15",16,"Male","Female",20,21,"Stim\r09y15g18b07.jpeg","Stim\r11y13g22b35.jpeg",9,11,15,13,18,22,7,35,-3,4,0,1,0,1,1,1.685,1.364,0,0.897,1,"grøn","15_16",4,1,0,1,"Right_lead","Female","Male","stick",0.183166366778741,0.203404897414427,1.11049261385489,0.110492613854887,3,4,0.695968773397057,0.808745594448314,1.33333333333333,0.333333333333333
"255","16_1",8,"15_1",8,"15",16,"Male","Female",20,21,"Stim\r11y13g22b35.jpeg","Stim\r14y12g04b29.jpeg",11,14,13,12,22,4,35,29,3,-4,0,1,1,0,1,1.832,1.796,0,2.411,1,"rød","15_16",3,0,1,1,"Right_lead","Female","Male","surrender",NA,NA,NA,NA,3,4,0.695968773397057,0.808745594448314,1.33333333333333,0.333333333333333
"256","16_1",80,"15_1",80,"15",16,"Male","Female",20,21,"Stim\r04y39g24b15.jpeg","Stim\r21y03g15b37.jpeg",4,21,39,3,24,15,15,37,2,-4,-1,0,0,1,1,1.604,1.35,1.796,0,1,"grøn","15_16",-9,0,1,0,"Left_lead","Male","Female","surrender",0.186871043162202,0.210832338510245,0.88634905101677,-0.11365094898323,2,4,-0.586078967071206,0.808745594448314,0.5,-0.5
"257","16_1",83,"15_1",83,"15",16,"Male","Female",20,21,"Stim\r10y13g07b36.jpeg","Stim\r17y22g16b15.jpeg",10,17,13,22,7,16,36,15,3,-3,0,-1,1,0,0,1.493,1.326,0,1.281,1,"grøn","15_16",9,0,1,0,"Right_lead","Female","Male","stick",0.188568983139675,0.196373682522639,1.0413890940759,0.0413890940758959,3,3,0.695968773397057,-0.279950398078262,1,0
"258","16_1",85,"15_1",85,"15",16,"Male","Female",20,21,"Stim\r08y23g10b29.jpeg","Stim\r10y13g07b36.jpeg",8,10,23,13,10,7,29,36,-1,3,1,0,1,0,0,1.666,1.398,1.311,0,1,"grøn","15_16",-3,1,0,1,"Left_lead","Male","Female","surrender",0.18748465690835,0.188219448089406,0.996096093211861,-0.0039039067881389,1,3,-1.86812670753947,-0.279950398078262,0.333333333333333,-0.666666666666667
"259","16_1",88,"15_1",88,"15",16,"Male","Female",20,21,"Stim\r15y05g12b10.jpeg","Stim\r11y14g08b23.jpeg",15,11,5,14,12,8,10,23,2,-2,0,1,0,1,0,1.223,2.016,0,1.64,1,"grøn","15_16",-4,0,1,1,"Right_lead","Female","Male","surrender",0.214479947319183,0.218025710156433,1.01653190837451,0.0165319083745079,2,2,-0.586078967071206,-1.36864639060484,1,0
"260","16_1",90,"15_1",90,"15",16,"Male","Female",20,21,"Stim\r12y12g14b26.jpeg","Stim\r12y07g16b25.jpeg",12,12,12,7,14,16,26,25,-2,2,0,-1,0,1,0,2.564,2.026,0,2.528,1,"grøn","15_16",2,1,0,0,"Right_lead","Female","Male","surrender",0.239801983938071,0.232674851536975,0.970279093258309,-0.0297209067416915,2,2,-0.586078967071206,-1.36864639060484,1,0
"261","16_2",10,"14_2",10,"14",16,"Female","Female",25,21,"Stim\r12y07g16b25.jpeg","Stim\r14y20g16b10.jpeg",12,14,7,20,16,16,25,10,2,-2,1,0,1,0,1,1.182,1.98,1.708,0,2,"rød","14_16",2,0,1,1,"Left_lead","Female","Female","stick",0.197985586882144,0.205118252139102,0.965226569636909,-0.0347734303630911,2,2,0,-0.450641652993793,1,0
"262","16_2",15,"14_2",15,"14",16,"Female","Female",25,21,"Stim\r11y10g06b19.jpeg","Stim\r10y03g03b07.jpeg",11,10,10,3,6,3,19,7,2,-1,0,1,0,1,0,1.195,2.591,0,1.758,2,"rød","14_16",-1,0,1,1,"Right_lead","Female","Female","surrender",0.216868461432021,0.221589918709822,1.02177106457354,0.0217710645735409,2,1,0,-1.19420038043355,0.5,-0.5
"263","16_2",18,"14_2",18,"14",16,"Female","Female",25,21,"Stim\r14y10g15b15.jpeg","Stim\r15y05g12b10.jpeg",14,15,10,5,15,12,15,10,-2,4,1,0,0,1,1,1.13,1.328,1.264,0,2,"rød","14_16",1,1,0,1,"Left_lead","Female","Female","surrender",0.209747343099263,0.226976251610885,0.924093783427359,-0.0759062165726406,2,4,0,1.03647580188572,0.5,-0.5
"264","16_2",2,"14_2",2,"14",16,"Female","Female",25,21,"Stim\r17y22g16b15.jpeg","Stim\r15y16g12b03.jpeg",17,15,22,16,16,12,15,3,2,-4,-1,0,0,1,1,1.322,1.113,1.97,0,2,"rød","14_16",-2,0,1,0,"Left_lead","Female","Female","surrender",NA,NA,NA,NA,2,4,0,1.03647580188572,0.5,-0.5
"265","16_2",20,"14_2",20,"14",16,"Female","Female",25,21,"Stim\r07y02g03b06.jpeg","Stim\r09y07g06b09.jpeg",7,9,2,7,3,6,6,9,-1,2,0,-1,0,1,0,1.089,2.437,0,2.611,2,"rød","14_16",2,1,0,0,"Right_lead","Female","Female","surrender",0.213712879585204,0.219050572595408,1.02497600060681,0.024976000606814,1,2,-1.33333333333333,-0.450641652993793,2,1
"266","16_2",24,"14_2",24,"14",16,"Female","Female",25,21,"Stim\r22y02g34b05.jpeg","Stim\r19y10g06b15.jpeg",22,19,2,10,34,6,5,15,-1,4,1,0,1,0,0,3.105,1.634,1.556,0,2,"rød","14_16",-3,1,0,1,"Left_lead","Female","Female","surrender",0.23479272636307,0.230593333563604,1.01821124979881,0.0182112497988052,1,4,-1.33333333333333,1.03647580188572,0.25,-0.75
"267","16_2",3,"14_2",3,"14",16,"Female","Female",25,21,"Stim\r21y03g15b37.jpeg","Stim\r22y35g09b11.jpeg",21,22,3,35,15,9,37,11,2,-2,1,0,1,0,1,1.439,1.969,2.198,0,2,"rød","14_16",1,0,1,1,"Left_lead","Female","Female","stick",NA,NA,NA,NA,2,2,0,-0.450641652993793,1,0
"268","16_2",30,"14_2",30,"14",16,"Female","Female",25,21,"Stim\r03y03g02b05.jpeg","Stim\r17y11g38b07.jpeg",3,17,3,11,2,38,5,7,2,-4,0,-1,1,0,0,1.061,1.507,0,1.464,2,"blå","14_16",2,0,1,0,"Right_lead","Female","Female","stick",0.240731291251781,0.228659350614958,0.949853047461965,-0.0501469525380351,2,4,0,1.03647580188572,2,1
"269","16_2",31,"14_2",31,"14",16,"Female","Female",25,21,"Stim\r06y19g29b08.jpeg","Stim\r18y13g28b06.jpeg",6,18,19,13,29,28,8,6,-1,1,1,0,1,0,0,3.342,1.471,2.048,0,2,"blå","14_16",-2,1,0,1,"Left_lead","Female","Female","surrender",0.245779821850399,0.219086711517736,1.12183810760472,0.121838107604724,1,1,-1.33333333333333,-1.19420038043355,1,0
"270","16_2",32,"14_2",32,"14",16,"Female","Female",25,21,"Stim\r10y07g11b10.jpeg","Stim\r22y23g20b06.jpeg",10,22,7,23,11,20,10,6,2,-2,0,1,0,1,0,2.647,1.376,0,2.561,2,"blå","14_16",-4,0,1,1,"Right_lead","Female","Female","surrender",0.232395953659376,0.226408503529592,0.974235996644934,-0.0257640033550663,2,2,0,-0.450641652993793,1,0
"271","16_2",33,"14_2",33,"14",16,"Female","Female",25,21,"Stim\r04y39g24b15.jpeg","Stim\r12y07g07b17.jpeg",4,12,39,7,24,7,15,17,-2,1,-1,0,0,1,0,1.144,1.291,1.944,0,2,"blå","14_16",2,1,0,0,"Left_lead","Female","Female","stick",0.213125854366887,0.211725805171501,1.00661255813505,0.00661255813504602,2,1,0,-1.19420038043355,2,1
"272","16_2",34,"14_2",34,"14",16,"Female","Female",25,21,"Stim\r16y09g06b10.jpeg","Stim\r02y10g14b11.jpeg",16,2,9,10,6,14,10,11,2,-4,-1,0,1,0,0,1.045,1.146,1.397,0,2,"blå","14_16",1,0,1,0,"Left_lead","Female","Female","surrender",0.212261905520653,0.216643804617963,0.979773716100319,-0.0202262838996814,2,4,0,1.03647580188572,0.5,-0.5
"273","16_2",35,"14_2",35,"14",16,"Female","Female",25,21,"Stim\r05y40g33b16.jpeg","Stim\r17y12g19b18.jpeg",5,17,40,12,33,19,16,18,-2,2,0,-1,0,1,0,1.112,2.324,0,1.463,2,"blå","14_16",2,1,0,0,"Right_lead","Female","Female","surrender",0.193608142714354,0.217458335697763,1.12318796435436,0.123187964354356,2,2,0,-0.450641652993793,1,0
"274","16_2",43,"14_2",43,"14",16,"Female","Female",25,21,"Stim\r17y20g40b07.jpeg","Stim\r21y24g16b04.jpeg",17,21,20,24,40,16,7,4,-1,4,1,0,1,0,0,2.155,1.301,1.55,0,2,"blå","14_16",-3,1,0,1,"Left_lead","Female","Female","surrender",0.165653350095756,0.16478080971076,1.00529515777066,0.00529515777066236,1,4,-1.33333333333333,1.03647580188572,0.25,-0.75
"275","16_2",44,"14_2",44,"14",16,"Female","Female",25,21,"Stim\r17y07g07b24.jpeg","Stim\r13y24g05b28.jpeg",17,13,7,24,7,5,24,28,-2,4,0,-1,0,1,0,1.18,1.543,0,4.05,2,"blå","14_16",4,1,0,0,"Right_lead","Female","Female","surrender",0.174295829098627,0.17517098007314,1.00502106664881,0.00502106664880531,2,4,0,1.03647580188572,2,1
"276","16_2",45,"14_2",45,"14",16,"Female","Female",25,21,"Stim\r09y07g06b09.jpeg","Stim\r04y28g27b06.jpeg",9,4,7,28,6,27,9,6,2,-4,-1,0,0,1,1,0.974,1.403,1.291,0,2,"blå","14_16",-3,0,1,0,"Left_lead","Female","Female","surrender",0.175897603527167,0.179571081826285,0.979543040773839,-0.0204569592261614,2,4,0,1.03647580188572,0.5,-0.5
"277","16_2",46,"14_2",46,"14",16,"Female","Female",25,21,"Stim\r11y13g22b35.jpeg","Stim\r14y08g21b39.jpeg",11,14,13,8,22,21,35,39,2,-4,-1,0,1,0,0,1.673,1.198,1.057,0,2,"blå","14_16",4,0,1,0,"Left_lead","Female","Female","surrender",0.188813611642714,0.190776589174397,0.989710595308481,-0.0102894046915187,2,4,0,1.03647580188572,0.5,-0.5
"278","16_2",48,"14_2",48,"14",16,"Female","Female",25,21,"Stim\r08y23g10b29.jpeg","Stim\r06y14g31b25.jpeg",8,6,23,14,10,31,29,25,-2,4,0,1,1,0,0,1.082,1.096,0,1.68,2,"blå","14_16",-4,1,0,1,"Right_lead","Female","Female","stick",0.179692774819565,0.17415079617051,0.969158589405613,-0.0308414105943874,2,4,0,1.03647580188572,2,1
"279","16_2",52,"14_2",52,"14",16,"Female","Female",25,21,"Stim\r15y05g12b10.jpeg","Stim\r12y07g07b17.jpeg",15,12,5,7,12,7,10,17,-2,4,1,0,0,1,1,1.453,1.882,1.231,0,2,"gul","14_16",2,1,0,1,"Left_lead","Female","Female","surrender",0.150025636162383,0.14074768469813,1.06591903436388,0.0659190343638829,2,4,0,1.03647580188572,0.5,-0.5
"280","16_2",53,"14_2",53,"14",16,"Female","Female",25,21,"Stim\r14y10g15b15.jpeg","Stim\r08y09g09b11.jpeg",14,8,10,9,15,9,15,11,-2,2,-1,0,1,0,1,1.584,1.913,1.76,0,2,"gul","14_16",-1,1,0,0,"Left_lead","Female","Female","stick",0.143697684924799,0.140018880198262,1.02627363339378,0.0262736333937819,2,2,0,-0.450641652993793,1,0
"281","16_2",57,"14_2",57,"14",16,"Female","Female",25,21,"Stim\r20y14g02b19.jpeg","Stim\r02y10g14b11.jpeg",20,2,14,10,2,14,19,11,-1,2,1,0,1,0,0,1.582,0.961,2.166,0,2,"gul","14_16",-4,1,0,1,"Left_lead","Female","Female","surrender",0.135197513349747,0.0949363675338714,1.42408559397969,0.424085593979686,1,2,-1.33333333333333,-0.450641652993793,0.5,-0.5
"282","16_2",62,"14_2",62,"14",16,"Female","Female",25,21,"Stim\r13y21g23b09.jpeg","Stim\r17y20g40b07.jpeg",13,17,21,20,23,40,9,7,3,-4,0,-1,0,1,1,1.065,1.191,0,1.171,2,"gul","14_16",-1,0,1,0,"Right_lead","Female","Female","stick",0.212102796909656,0.200869750817827,0.947039613548266,-0.052960386451734,3,4,1.33333333333333,1.03647580188572,1.33333333333333,0.333333333333333
"283","16_2",64,"14_2",64,"14",16,"Female","Female",25,21,"Stim\r16y09g06b10.jpeg","Stim\r11y10g06b19.jpeg",16,11,9,10,6,6,10,19,3,-1,0,1,1,0,1,1.455,1.535,0,1.608,2,"gul","14_16",1,0,1,1,"Right_lead","Female","Female","surrender",0.216820961059042,0.212222844189345,0.978793024220362,-0.0212069757796383,3,1,1.33333333333333,-1.19420038043355,0.333333333333333,-0.666666666666667
"284","16_2",66,"14_2",66,"14",16,"Female","Female",25,21,"Stim\r17y12g19b18.jpeg","Stim\r12y09g30b18.jpeg",17,12,12,9,19,30,18,18,-2,1,0,-1,1,0,1,1.7,1.497,0,1.216,2,"gul","14_16",-3,1,0,0,"Right_lead","Female","Female","surrender",0.227580198555298,0.215827540388655,0.948358168938906,-0.0516418310610943,2,1,0,-1.19420038043355,0.5,-0.5
"285","16_2",69,"14_2",69,"14",16,"Female","Female",25,21,"Stim\r10y27g22b14.jpeg","Stim\r11y26g25b38.jpeg",10,11,27,26,22,25,14,38,-3,4,1,0,1,0,0,1.011,4.958,1.715,0,2,"gul","14_16",-1,1,0,1,"Left_lead","Female","Female","surrender",0.254688755684507,0.24164467107958,1.05398043559848,0.0539804355984794,3,4,1.33333333333333,1.03647580188572,0.75,-0.25
"286","16_2",74,"14_2",74,"14",16,"Female","Female",25,21,"Stim\r10y13g07b36.jpeg","Stim\r08y23g10b29.jpeg",10,8,13,23,7,10,36,29,2,-1,-1,0,1,0,0,2.951,1.53,1.3,0,2,"grøn","14_16",3,0,1,0,"Left_lead","Female","Female","surrender",0.253337332571236,0.236699440247645,1.07029121955753,0.0702912195575272,2,1,0,-1.19420038043355,2,1
"287","16_2",77,"14_2",77,"14",16,"Female","Female",25,21,"Stim\r04y16g13b13.jpeg","Stim\r14y20g16b10.jpeg",4,14,16,20,13,16,13,10,2,-2,0,1,1,0,1,1.337,1.382,0,2.717,2,"grøn","14_16",3,0,1,1,"Right_lead","Female","Female","surrender",0.221924470731329,0.212214696601745,0.956247393099164,-0.0437526069008364,2,2,0,-0.450641652993793,1,0
"288","16_2",78,"14_2",78,"14",16,"Female","Female",25,21,"Stim\r20y04g39b23.jpeg","Stim\r17y20g40b07.jpeg",20,17,4,20,39,40,23,7,2,-4,0,-1,1,0,0,1.331,1.211,0,0.755,2,"grøn","14_16",1,0,1,0,"Right_lead","Female","Female","stick",0.21802162347019,0.204980849343587,0.940185868176575,-0.0598141318234245,2,4,0,1.03647580188572,2,1
"289","16_2",83,"14_2",83,"14",16,"Female","Female",25,21,"Stim\r12y07g16b25.jpeg","Stim\r02y10g14b11.jpeg",12,2,7,10,16,14,25,11,-4,1,-1,0,1,0,1,1.805,1.9,1.516,0,2,"grøn","14_16",-2,1,0,0,"Left_lead","Female","Female","stick",0.218619154440502,0.197351213277495,1.10776696433633,0.107766964336329,4,1,2.66666666666667,-1.19420038043355,4,3
"290","16_2",84,"14_2",84,"14",16,"Female","Female",25,21,"Stim\r22y35g09b11.jpeg","Stim\r15y05g12b10.jpeg",22,15,35,5,9,12,11,10,-2,1,0,1,0,1,1,1.595,0.908,0,3.28,2,"grøn","14_16",3,1,0,1,"Right_lead","Female","Female","stick",0.207892951138976,0.203260516959566,0.977717213815907,-0.0222827861840934,2,1,0,-1.19420038043355,0.5,-0.5
"291","16_2",89,"14_2",89,"14",16,"Female","Female",25,21,"Stim\r13y24g05b28.jpeg","Stim\r11y14g08b23.jpeg",13,11,24,14,5,8,28,23,-4,1,0,-1,0,1,0,1.646,1.975,0,1.164,2,"grøn","14_16",3,1,0,0,"Right_lead","Female","Female","surrender",0.2460278183078,0.252295578484008,1.02547581903265,0.0254758190326534,4,1,2.66666666666667,-1.19420038043355,0.25,-0.75
"292","16_2",9,"14_2",9,"14",16,"Female","Female",25,21,"Stim\r03y03g02b05.jpeg","Stim\r07y14g27b22.jpeg",3,7,3,14,2,27,5,22,-1,4,1,0,0,1,1,2.012,2.224,1.48,0,2,"rød","14_16",4,1,0,1,"Left_lead","Female","Female","surrender",NA,NA,NA,NA,1,4,-1.33333333333333,1.03647580188572,0.25,-0.75
