"","SubjectID_left","SubjectID_right","Gender_left","Gender_right","Age_left","Age_right","Image_1","Image_2","Prop_red_image_1","Prop_red_image_2","Prop_yellow_image_1","Prop_yellow_image_2","Prop_green_image_1","Prop_green_image_2","Prop_blue_image_1","Prop_blue_image_2","Response_left","Response_right","Joint_left","Joint_right","Correct_left","Correct_right","Correct_joint","RT_left","RT_right","RT_joint_left","RT_joint_right","Round","Block","group_id","SubjectID_left_unique","SubjectID_right_unique","diff","response_right_dummy","response_left_dummy","response_joint_dummy","chosen_leader","Leader_gender","Follower_gender","leader_behavior","Trial"
"2","3","1","Male","Male",24,23,"Stim\r16y21g04b04.jpeg","Stim\r15y05g12b10.jpeg",16,15,21,5,4,12,4,10,3,-2,1,0,0,1,0,1.888,1.867,6.121,0,1,"rød","3_1","3_1","1_1",-1,0,1,1,"Left_lead","Male","Male","stick",2
"5","3","1","Male","Male",24,23,"Stim\r20y14g02b19.jpeg","Stim\r21y01g04b27.jpeg",20,21,14,1,2,4,19,27,2,-1,0,-1,1,0,0,2.142,1.872,0,7.432,1,"rød","3_1","3_1","1_1",1,0,1,0,"Right_lead","Male","Male","stick",5
"7","3","1","Male","Male",24,23,"Stim\r09y15g18b07.jpeg","Stim\r06y36g16b14.jpeg",9,6,15,36,18,16,7,14,-2,2,0,-1,1,0,1,1.693,2.856,0,4.031,1,"rød","3_1","3_1","1_1",-3,1,0,0,"Right_lead","Male","Male","surrender",7
"8","3","1","Male","Male",24,23,"Stim\r08y23g10b29.jpeg","Stim\r10y02g36b05.jpeg",8,10,23,2,10,36,29,5,2,-1,-1,0,1,0,0,2.192,2.055,1.961,0,1,"rød","3_1","3_1","1_1",2,0,1,0,"Left_lead","Male","Male","surrender",8
"11","3","1","Male","Male",24,23,"Stim\r11y26g25b38.jpeg","Stim\r15y16g12b03.jpeg",11,15,26,16,25,12,38,3,3,-2,0,-1,1,0,0,2.409,1.473,0,4.129,1,"rød","3_1","3_1","1_1",4,0,1,0,"Right_lead","Male","Male","stick",11
"12","3","1","Male","Male",24,23,"Stim\r11y14g08b23.jpeg","Stim\r08y23g10b29.jpeg",11,8,14,23,8,10,23,29,-2,1,0,-1,1,0,1,2.381,1.775,0,4.168,1,"rød","3_1","3_1","1_1",-3,1,0,0,"Right_lead","Male","Male","surrender",12
"13","3","1","Male","Male",24,23,"Stim\r07y02g03b06.jpeg","Stim\r14y12g04b29.jpeg",7,14,2,12,3,4,6,29,-2,2,1,0,0,1,1,1.989,2.701,4.514,0,1,"rød","3_1","3_1","1_1",7,1,0,1,"Left_lead","Male","Male","surrender",13
"15","3","1","Male","Male",24,23,"Stim\r13y33g08b23.jpeg","Stim\r11y13g22b35.jpeg",13,11,33,13,8,22,23,35,2,-1,1,0,0,1,0,1.078,1.825,1.666,0,1,"rød","3_1","3_1","1_1",-2,0,1,1,"Left_lead","Male","Male","stick",15
"16","3","1","Male","Male",24,23,"Stim\r07y14g27b22.jpeg","Stim\r09y06g26b32.jpeg",7,9,14,6,27,26,22,32,2,-2,0,-1,1,0,0,1.699,1.592,0,2.427,1,"rød","3_1","3_1","1_1",2,0,1,0,"Right_lead","Male","Male","stick",16
"17","3","1","Male","Male",24,23,"Stim\r08y09g09b11.jpeg","Stim\r09y06g26b32.jpeg",8,9,9,6,9,26,11,32,2,-2,-1,0,1,0,0,1.457,1.707,1.951,0,1,"rød","3_1","3_1","1_1",1,0,1,0,"Left_lead","Male","Male","surrender",17
"19","3","1","Male","Male",24,23,"Stim\r14y12g04b29.jpeg","Stim\r13y33g08b23.jpeg",14,13,12,33,4,8,29,23,2,-2,-1,0,0,1,1,1.322,1.768,3.525,0,1,"rød","3_1","3_1","1_1",-1,0,1,0,"Left_lead","Male","Male","surrender",19
"21","3","1","Male","Male",24,23,"Stim\r22y35g09b11.jpeg","Stim\r18y19g14b27.jpeg",22,18,35,19,9,14,11,27,-2,2,0,1,1,0,0,1.011,1.543,0,2.397,1,"rød","3_1","3_1","1_1",-4,1,0,1,"Right_lead","Male","Male","stick",21
"22","3","1","Male","Male",24,23,"Stim\r21y03g15b37.jpeg","Stim\r18y13g28b06.jpeg",21,18,3,13,15,28,37,6,3,-2,1,0,0,1,0,1.607,1.42,1.824,0,1,"rød","3_1","3_1","1_1",-3,0,1,1,"Left_lead","Male","Male","stick",22
"23","3","1","Male","Male",24,23,"Stim\r18y19g14b27.jpeg","Stim\r19y10g06b15.jpeg",18,19,19,10,14,6,27,15,1,-2,-1,0,1,0,0,1.577,0.94,1.044,0,1,"rød","3_1","3_1","1_1",1,0,1,0,"Left_lead","Male","Male","surrender",23
"24","3","1","Male","Male",24,23,"Stim\r14y08g21b39.jpeg","Stim\r12y12g14b26.jpeg",14,12,8,12,21,14,39,26,2,-2,-1,0,0,1,1,2.765,1.178,1.33,0,1,"rød","3_1","3_1","1_1",-2,0,1,0,"Left_lead","Male","Male","surrender",24
"25","3","1","Male","Male",24,23,"Stim\r03y03g02b05.jpeg","Stim\r04y28g27b06.jpeg",3,4,3,28,2,27,5,6,4,-2,1,0,1,0,1,1.327,1.206,1.14,0,1,"rød","3_1","3_1","1_1",1,0,1,1,"Left_lead","Male","Male","stick",25
"27","3","1","Male","Male",24,23,"Stim\r12y09g30b18.jpeg","Stim\r20y14g02b19.jpeg",12,20,9,14,30,2,18,19,3,-2,0,1,1,0,1,1.325,1.271,0,1.764,1,"blå","3_1","3_1","1_1",1,0,1,1,"Right_lead","Male","Male","surrender",27
"29","3","1","Male","Male",24,23,"Stim\r12y07g07b17.jpeg","Stim\r09y17g32b21.jpeg",12,9,7,17,7,32,17,21,-2,3,1,0,0,1,1,2.47,3.249,1.474,0,1,"blå","3_1","3_1","1_1",4,1,0,1,"Left_lead","Male","Male","surrender",29
"33","3","1","Male","Male",24,23,"Stim\r21y31g06b08.jpeg","Stim\r22y35g09b11.jpeg",21,22,31,35,6,9,8,11,4,-2,1,0,1,0,1,1.193,1.087,1.563,0,1,"blå","3_1","3_1","1_1",3,0,1,1,"Left_lead","Male","Male","stick",33
"34","3","1","Male","Male",24,23,"Stim\r13y33g08b23.jpeg","Stim\r17y22g16b15.jpeg",13,17,33,22,8,16,23,15,-1,2,1,0,1,0,0,2.316,3.728,1.064,0,1,"blå","3_1","3_1","1_1",-8,1,0,1,"Left_lead","Male","Male","surrender",34
"35","3","1","Male","Male",24,23,"Stim\r11y10g06b19.jpeg","Stim\r09y17g32b21.jpeg",11,9,10,17,6,32,19,21,4,-2,1,0,1,0,1,1.103,0.949,1.025,0,1,"blå","3_1","3_1","1_1",2,0,1,1,"Left_lead","Male","Male","stick",35
"36","3","1","Male","Male",24,23,"Stim\r10y02g36b05.jpeg","Stim\r21y31g06b08.jpeg",10,21,2,31,36,6,5,8,2,-2,-1,0,1,0,0,1.329,1.975,3.581,0,1,"blå","3_1","3_1","1_1",3,0,1,0,"Left_lead","Male","Male","surrender",36
"37","3","1","Male","Male",24,23,"Stim\r09y06g26b32.jpeg","Stim\r03y11g01b26.jpeg",9,3,6,11,26,1,32,26,3,-2,1,0,0,1,0,1.549,2.378,1.316,0,1,"blå","3_1","3_1","1_1",-6,0,1,1,"Left_lead","Male","Male","stick",37
"41","3","1","Male","Male",24,23,"Stim\r09y17g32b21.jpeg","Stim\r20y14g02b19.jpeg",9,20,17,14,32,2,21,19,-3,1,-1,0,1,0,1,1.293,1.823,1.035,0,1,"blå","3_1","3_1","1_1",-2,1,0,0,"Left_lead","Male","Male","stick",41
"42","3","1","Male","Male",24,23,"Stim\r03y06g12b09.jpeg","Stim\r16y09g06b10.jpeg",3,16,6,9,12,6,9,10,-1,3,0,-1,0,1,0,1.07,1.38,0,5.163,1,"blå","3_1","3_1","1_1",1,1,0,0,"Right_lead","Male","Male","surrender",42
"43","3","1","Male","Male",24,23,"Stim\r10y27g22b14.jpeg","Stim\r22y35g09b11.jpeg",10,22,27,35,22,9,14,11,2,-2,0,-1,0,1,1,1.15,2.212,0,4.827,1,"blå","3_1","3_1","1_1",-3,0,1,0,"Right_lead","Male","Male","stick",43
"45","3","1","Male","Male",24,23,"Stim\r10y03g03b07.jpeg","Stim\r08y09g09b11.jpeg",10,8,3,9,3,9,7,11,-1,2,0,1,0,1,1,2.094,1.491,0,2.682,1,"blå","3_1","3_1","1_1",4,1,0,1,"Right_lead","Male","Male","stick",45
"46","3","1","Male","Male",24,23,"Stim\r14y08g21b39.jpeg","Stim\r05y28g23b30.jpeg",14,5,8,28,21,23,39,30,2,-3,0,-1,0,1,1,1.401,1.326,0,2.181,1,"blå","3_1","3_1","1_1",-9,0,1,0,"Right_lead","Male","Male","stick",46
"47","3","1","Male","Male",24,23,"Stim\r12y07g16b25.jpeg","Stim\r14y12g04b29.jpeg",12,14,7,12,16,4,25,29,4,-2,0,1,1,0,1,1.249,3.545,0,1.554,1,"blå","3_1","3_1","1_1",4,0,1,1,"Right_lead","Male","Male","surrender",47
"49","3","1","Male","Male",24,23,"Stim\r16y09g06b10.jpeg","Stim\r21y31g06b08.jpeg",16,21,9,31,6,6,10,8,1,-2,-1,0,0,1,1,0.987,1.214,1.848,0,1,"blå","3_1","3_1","1_1",-2,0,1,0,"Left_lead","Male","Male","surrender",49
"52","3","1","Male","Male",24,23,"Stim\r06y14g31b25.jpeg","Stim\r09y15g18b07.jpeg",6,9,14,15,31,18,25,7,3,-1,1,0,1,0,1,1.654,2.367,1,0,1,"gul","3_1","3_1","1_1",1,0,1,1,"Left_lead","Male","Male","stick",52
"54","3","1","Male","Male",24,23,"Stim\r06y19g29b08.jpeg","Stim\r22y23g20b06.jpeg",6,22,19,23,29,20,8,6,2,-3,-1,0,1,0,0,1.066,1.379,1.032,0,1,"gul","3_1","3_1","1_1",4,0,1,0,"Left_lead","Male","Male","surrender",54
"59","3","1","Male","Male",24,23,"Stim\r08y23g10b29.jpeg","Stim\r07y14g27b22.jpeg",8,7,23,14,10,27,29,22,2,-1,0,1,0,1,0,1.37,1.299,0,3.06,1,"gul","3_1","3_1","1_1",-9,0,1,1,"Right_lead","Male","Male","surrender",59
"62","3","1","Male","Male",24,23,"Stim\r09y15g18b07.jpeg","Stim\r12y07g07b17.jpeg",9,12,15,7,18,7,7,17,-2,2,0,1,1,0,0,1.208,2.054,0,4.292,1,"gul","3_1","3_1","1_1",-8,1,0,1,"Right_lead","Male","Male","stick",62
"63","3","1","Male","Male",24,23,"Stim\r19y10g06b15.jpeg","Stim\r14y08g21b39.jpeg",19,14,10,8,6,21,15,39,-1,1,0,-1,1,0,1,1.079,1.874,0,3.743,1,"gul","3_1","3_1","1_1",-2,1,0,0,"Right_lead","Male","Male","surrender",63
"68","3","1","Male","Male",24,23,"Stim\r04y39g24b15.jpeg","Stim\r13y33g08b23.jpeg",4,13,39,33,24,8,15,23,-4,3,-1,0,1,0,1,1.042,1.554,4.111,0,1,"gul","3_1","3_1","1_1",-6,1,0,0,"Left_lead","Male","Male","stick",68
"71","3","1","Male","Male",24,23,"Stim\r09y02g05b02.jpeg","Stim\r03y06g12b09.jpeg",9,3,2,6,5,12,2,9,-1,1,1,0,0,1,1,1.305,1.334,1.346,0,1,"gul","3_1","3_1","1_1",4,1,0,1,"Left_lead","Male","Male","surrender",71
"74","3","1","Male","Male",24,23,"Stim\r11y10g06b19.jpeg","Stim\r05y09g02b34.jpeg",11,5,10,9,6,2,19,34,-2,1,-1,0,1,0,1,1.349,1.844,1.659,0,1,"grøn","3_1","3_1","1_1",-4,1,0,0,"Left_lead","Male","Male","stick",74
"80","3","1","Male","Male",24,23,"Stim\r20y14g02b19.jpeg","Stim\r07y02g03b06.jpeg",20,7,14,2,2,3,19,6,-1,2,0,1,0,1,1,0.946,1.392,0,3.265,1,"grøn","3_1","3_1","1_1",1,1,0,1,"Right_lead","Male","Male","stick",80
"85","3","1","Male","Male",24,23,"Stim\r09y15g18b07.jpeg","Stim\r03y06g12b09.jpeg",9,3,15,6,18,12,7,9,-4,1,0,-1,1,0,1,1.008,0.854,0,1.531,1,"grøn","3_1","3_1","1_1",-6,1,0,0,"Right_lead","Male","Male","surrender",85
"87","3","1","Male","Male",24,23,"Stim\r15y05g12b10.jpeg","Stim\r08y23g10b29.jpeg",15,8,5,23,12,10,10,29,-3,2,-1,0,1,0,1,1.011,1.223,1.38,0,1,"grøn","3_1","3_1","1_1",-2,1,0,0,"Left_lead","Male","Male","stick",87
"88","3","1","Male","Male",24,23,"Stim\r19y10g06b15.jpeg","Stim\r10y13g07b36.jpeg",19,10,10,13,6,7,15,36,-1,2,0,1,0,1,1,1.203,1.201,0,3.777,1,"grøn","3_1","3_1","1_1",1,1,0,1,"Right_lead","Male","Male","stick",88
"89","3","1","Male","Male",24,23,"Stim\r13y33g08b23.jpeg","Stim\r06y36g16b14.jpeg",13,6,33,36,8,16,23,14,-1,1,0,-1,0,1,0,2.091,2.021,0,3.893,1,"grøn","3_1","3_1","1_1",8,1,0,0,"Right_lead","Male","Male","surrender",89
"90","3","1","Male","Male",24,23,"Stim\r16y21g04b04.jpeg","Stim\r11y10g06b19.jpeg",16,11,21,10,4,6,4,19,-2,2,0,-1,0,1,0,1.27,1.25,0,3.656,1,"grøn","3_1","3_1","1_1",2,1,0,0,"Right_lead","Male","Male","surrender",90
"95","3","1","Male","Male",24,23,"Stim\r07y06g08b05.jpeg","Stim\r16y09g06b10.jpeg",7,16,6,9,8,6,5,10,-4,1,-1,0,1,0,1,1.435,2.048,0.868,0,1,"grøn","3_1","3_1","1_1",-2,1,0,0,"Left_lead","Male","Male","stick",95
"97","3","1","Male","Male",24,23,"Stim\r02y19g24b04.jpeg","Stim\r10y27g22b14.jpeg",2,10,19,27,24,22,4,14,-2,1,0,-1,1,0,1,1.173,1.483,0,3.596,1,"grøn","3_1","3_1","1_1",-2,1,0,0,"Right_lead","Male","Male","surrender",97
"99","3","2","Male","Female",24,25,"Stim\r03y11g01b26.jpeg","Stim\r04y39g24b15.jpeg",3,4,11,39,1,24,26,15,-1,1,0,1,0,1,1,1.697,1.549,0,3.263,2,"rød","3_2","3_2","2_2",1,1,0,1,"Right_lead","Female","Male","stick",2
"100","3","2","Male","Female",24,25,"Stim\r06y36g16b14.jpeg","Stim\r09y17g32b21.jpeg",6,9,36,17,16,32,14,21,-2,2,1,0,0,1,1,1.445,1.591,1.868,0,2,"rød","3_2","3_2","2_2",3,1,0,1,"Left_lead","Male","Female","surrender",3
"105","3","2","Male","Female",24,25,"Stim\r10y03g03b07.jpeg","Stim\r06y14g31b25.jpeg",10,6,3,14,3,31,7,25,2,-3,0,-1,0,1,1,0.927,1.288,0,2.4,2,"rød","3_2","3_2","2_2",-4,0,1,0,"Right_lead","Female","Male","stick",8
"108","3","2","Male","Female",24,25,"Stim\r13y21g23b09.jpeg","Stim\r12y07g16b25.jpeg",13,12,21,7,23,16,9,25,2,-1,0,1,0,1,0,1.004,1.083,0,2.007,2,"rød","3_2","3_2","2_2",-1,0,1,1,"Right_lead","Female","Male","surrender",11
"109","3","2","Male","Female",24,25,"Stim\r22y02g34b05.jpeg","Stim\r19y10g06b15.jpeg",22,19,2,10,34,6,5,15,-3,2,0,-1,1,0,1,1.615,1.298,0,1.528,2,"rød","3_2","3_2","2_2",-3,1,0,0,"Right_lead","Female","Male","surrender",12
"111","3","2","Male","Female",24,25,"Stim\r17y11g38b07.jpeg","Stim\r15y05g12b10.jpeg",17,15,11,5,38,12,7,10,-2,1,-1,0,1,0,1,2.296,1.321,1.349,0,2,"rød","3_2","3_2","2_2",-2,1,0,0,"Left_lead","Male","Female","stick",14
"116","3","2","Male","Female",24,25,"Stim\r15y16g12b03.jpeg","Stim\r13y33g08b23.jpeg",15,13,16,33,12,8,3,23,-2,3,0,1,1,0,0,0.989,1.504,0,1.51,2,"rød","3_2","3_2","2_2",-2,1,0,1,"Right_lead","Female","Male","stick",19
"117","3","2","Male","Female",24,25,"Stim\r10y07g11b10.jpeg","Stim\r14y10g15b15.jpeg",10,14,7,10,11,15,10,15,-2,1,0,-1,0,1,0,1.019,0.898,0,1.799,2,"rød","3_2","3_2","2_2",4,1,0,0,"Right_lead","Female","Male","surrender",20
"118","3","2","Male","Female",24,25,"Stim\r09y17g32b21.jpeg","Stim\r05y40g33b16.jpeg",9,5,17,40,32,33,21,16,1,-2,0,-1,0,1,1,1.659,1.184,0,1.53,2,"rød","3_2","3_2","2_2",-4,0,1,0,"Right_lead","Female","Male","stick",21
"120","3","2","Male","Female",24,25,"Stim\r16y21g04b04.jpeg","Stim\r14y10g15b15.jpeg",16,14,21,10,4,15,4,15,-2,2,0,1,1,0,0,1.094,1.123,0,1.463,2,"rød","3_2","3_2","2_2",-2,1,0,1,"Right_lead","Female","Male","stick",23
"124","3","2","Male","Female",24,25,"Stim\r09y15g18b07.jpeg","Stim\r22y23g20b06.jpeg",9,22,15,23,18,20,7,6,-1,2,1,0,1,0,0,1.031,1.796,1.162,0,2,"blå","3_2","3_2","2_2",-1,1,0,1,"Left_lead","Male","Female","surrender",27
"133","3","2","Male","Female",24,25,"Stim\r15y05g12b10.jpeg","Stim\r17y20g40b07.jpeg",15,17,5,20,12,40,10,7,-1,2,1,0,1,0,0,1.786,1.249,1.195,0,2,"blå","3_2","3_2","2_2",-3,1,0,1,"Left_lead","Male","Female","surrender",36
"134","3","2","Male","Female",24,25,"Stim\r13y21g23b09.jpeg","Stim\r07y02g03b06.jpeg",13,7,21,2,23,3,9,6,-1,1,1,0,1,0,0,1.21,1.406,2.417,0,2,"blå","3_2","3_2","2_2",-3,1,0,1,"Left_lead","Male","Female","surrender",37
"135","3","2","Male","Female",24,25,"Stim\r17y12g19b18.jpeg","Stim\r17y22g16b15.jpeg",17,17,12,22,19,16,18,15,-2,2,-1,0,1,0,1,1.16,1.256,3.758,0,2,"blå","3_2","3_2","2_2",-3,1,0,0,"Left_lead","Male","Female","stick",38
"144","3","2","Male","Female",24,25,"Stim\r05y40g33b16.jpeg","Stim\r04y16g13b13.jpeg",5,4,40,16,33,13,16,13,-1,4,1,0,1,0,0,0.891,1.369,1.621,0,2,"blå","3_2","3_2","2_2",-3,1,0,1,"Left_lead","Male","Female","surrender",47
"146","3","2","Male","Female",24,25,"Stim\r10y37g07b02.jpeg","Stim\r05y40g33b16.jpeg",10,5,37,40,7,33,2,16,-2,1,0,-1,0,1,0,1.69,27.583,0,2.439,2,"gul","3_2","3_2","2_2",3,1,0,0,"Right_lead","Female","Male","surrender",49
"147","3","2","Male","Female",24,25,"Stim\r14y08g21b39.jpeg","Stim\r22y02g34b05.jpeg",14,22,8,2,21,34,39,5,1,-1,-1,0,0,1,1,3.065,0.843,1.076,0,2,"gul","3_2","3_2","2_2",-6,0,1,0,"Left_lead","Male","Female","surrender",50
"148","3","2","Male","Female",24,25,"Stim\r11y13g22b35.jpeg","Stim\r19y10g06b15.jpeg",11,19,13,10,22,6,35,15,-3,2,-1,0,1,0,1,1.787,1.192,1.339,0,2,"gul","3_2","3_2","2_2",-3,1,0,0,"Left_lead","Male","Female","stick",51
"153","3","2","Male","Female",24,25,"Stim\r12y09g30b18.jpeg","Stim\r17y12g19b18.jpeg",12,17,9,12,30,19,18,18,2,-1,1,0,1,0,1,1.032,1.59,1.106,0,2,"gul","3_2","3_2","2_2",3,0,1,1,"Left_lead","Male","Female","stick",56
"156","3","2","Male","Female",24,25,"Stim\r02y10g14b11.jpeg","Stim\r08y09g09b11.jpeg",2,8,10,9,14,9,11,11,-2,2,1,0,1,0,0,1.155,1.552,1.028,0,2,"gul","3_2","3_2","2_2",-1,1,0,1,"Left_lead","Male","Female","surrender",59
"157","3","2","Male","Female",24,25,"Stim\r22y35g09b11.jpeg","Stim\r04y39g24b15.jpeg",22,4,35,39,9,24,11,15,-4,2,0,-1,0,1,0,1.262,1.761,0,2.253,2,"gul","3_2","3_2","2_2",4,1,0,0,"Right_lead","Female","Male","surrender",60
"159","3","2","Male","Female",24,25,"Stim\r14y10g15b15.jpeg","Stim\r17y11g38b07.jpeg",14,17,10,11,15,38,15,7,1,-1,0,-1,1,0,0,1.019,1.634,0,2.575,2,"gul","3_2","3_2","2_2",1,0,1,0,"Right_lead","Female","Male","stick",62
"160","3","2","Male","Female",24,25,"Stim\r17y22g16b15.jpeg","Stim\r22y23g20b06.jpeg",17,22,22,23,16,20,15,6,-1,2,0,1,0,1,1,1.687,1.384,0,1.56,2,"gul","3_2","3_2","2_2",1,1,0,1,"Right_lead","Female","Male","stick",63
"173","3","2","Male","Female",24,25,"Stim\r14y08g21b39.jpeg","Stim\r10y27g22b14.jpeg",14,10,8,27,21,22,39,14,-2,2,-1,0,0,1,0,1.009,1.238,1.471,0,2,"grøn","3_2","3_2","2_2",1,1,0,0,"Left_lead","Male","Female","stick",76
"174","3","2","Male","Female",24,25,"Stim\r03y03g02b05.jpeg","Stim\r13y33g08b23.jpeg",3,13,3,33,2,8,5,23,-1,2,1,0,0,1,1,0.956,1.169,0.845,0,2,"grøn","3_2","3_2","2_2",6,1,0,1,"Left_lead","Male","Female","surrender",77
"176","3","2","Male","Female",24,25,"Stim\r10y37g07b02.jpeg","Stim\r14y12g04b29.jpeg",10,14,37,12,7,4,2,29,1,-1,-1,0,0,1,1,1.508,1.604,3.854,0,2,"grøn","3_2","3_2","2_2",-3,0,1,0,"Left_lead","Male","Female","surrender",79
"178","3","2","Male","Female",24,25,"Stim\r05y09g02b34.jpeg","Stim\r07y02g03b06.jpeg",5,7,9,2,2,3,34,6,2,-2,1,0,1,0,1,3.478,2.758,1.413,0,2,"grøn","3_2","3_2","2_2",1,0,1,1,"Left_lead","Male","Female","stick",81
"179","3","2","Male","Female",24,25,"Stim\r13y21g23b09.jpeg","Stim\r08y12g20b03.jpeg",13,8,21,12,23,20,9,3,2,-3,-1,0,0,1,1,1.463,3.193,1.146,0,2,"grøn","3_2","3_2","2_2",-3,0,1,0,"Left_lead","Male","Female","surrender",82
"191","3","2","Male","Female",24,25,"Stim\r09y17g32b21.jpeg","Stim\r06y14g31b25.jpeg",9,6,17,14,32,31,21,25,-4,2,-1,0,1,0,1,1.208,1.138,1.067,0,2,"grøn","3_2","3_2","2_2",-1,1,0,0,"Left_lead","Male","Female","stick",94
"192","3","2","Male","Female",24,25,"Stim\r17y22g16b15.jpeg","Stim\r22y23g20b06.jpeg",17,22,22,23,16,20,15,6,-2,1,-1,0,0,1,0,1.838,0.855,3.19,0,2,"grøn","3_2","3_2","2_2",4,1,0,0,"Left_lead","Male","Female","stick",95
"196","4","1","Female","Male",23,23,"Stim\r21y31g06b08.jpeg","Stim\r20y14g02b19.jpeg",21,20,31,14,6,2,8,19,3,-3,0,1,0,1,0,1.192,3.086,0,3.017,2,"rød","4_1","4_2","1_2",-1,0,1,1,"Right_lead","Male","Female","surrender",3
"197","4","1","Female","Male",23,23,"Stim\r14y10g15b15.jpeg","Stim\r21y24g16b04.jpeg",14,21,10,24,15,16,15,4,2,-2,0,-1,1,0,0,1.523,1.554,0,2.404,2,"rød","4_1","4_2","1_2",7,0,1,0,"Right_lead","Male","Female","stick",4
"199","4","1","Female","Male",23,23,"Stim\r10y27g22b14.jpeg","Stim\r13y33g08b23.jpeg",10,13,27,33,22,8,14,23,3,-2,1,0,1,0,1,2.001,1.847,2.105,0,2,"rød","4_1","4_2","1_2",3,0,1,1,"Left_lead","Female","Male","stick",6
"200","4","1","Female","Male",23,23,"Stim\r13y24g05b28.jpeg","Stim\r14y10g15b15.jpeg",13,14,24,10,5,15,28,15,4,-2,0,1,1,0,1,1.537,1.95,0,1.34,2,"rød","4_1","4_2","1_2",1,0,1,1,"Right_lead","Male","Female","surrender",7
"206","4","1","Female","Male",23,23,"Stim\r05y40g33b16.jpeg","Stim\r04y16g13b13.jpeg",5,4,40,16,33,13,16,13,2,-1,1,0,0,1,0,1.47,2.899,3.892,0,2,"rød","4_1","4_2","1_2",-1,0,1,1,"Left_lead","Female","Male","stick",13
"208","4","1","Female","Male",23,23,"Stim\r11y14g08b23.jpeg","Stim\r09y15g18b07.jpeg",11,9,14,15,8,18,23,7,-2,2,-1,0,1,0,1,1.539,2.302,3.311,0,2,"rød","4_1","4_2","1_2",-2,1,0,0,"Left_lead","Female","Male","stick",15
"215","4","1","Female","Male",23,23,"Stim\r20y04g39b23.jpeg","Stim\r14y10g15b15.jpeg",20,14,4,10,39,15,23,15,-1,3,0,1,1,0,0,1.342,1.971,0,2.794,2,"rød","4_1","4_2","1_2",-6,1,0,1,"Right_lead","Male","Female","stick",22
"221","4","1","Female","Male",23,23,"Stim\r10y07g11b10.jpeg","Stim\r10y03g03b07.jpeg",10,10,7,3,11,3,10,7,-2,3,1,0,1,0,0,1.933,2.262,3.532,0,2,"blå","4_1","4_2","1_2",-3,1,0,1,"Left_lead","Female","Male","surrender",28
"229","4","1","Female","Male",23,23,"Stim\r21y01g04b27.jpeg","Stim\r15y17g24b30.jpeg",21,15,1,17,4,24,27,30,1,-3,-1,0,1,0,0,1.821,1.85,5.512,0,2,"blå","4_1","4_2","1_2",3,0,1,0,"Left_lead","Female","Male","surrender",36
"231","4","1","Female","Male",23,23,"Stim\r13y33g08b23.jpeg","Stim\r03y11g01b26.jpeg",13,3,33,11,8,1,23,26,2,-3,0,1,1,0,1,1.247,2.593,0,2.376,2,"blå","4_1","4_2","1_2",3,0,1,1,"Right_lead","Male","Female","surrender",38
"236","4","1","Female","Male",23,23,"Stim\r12y09g30b18.jpeg","Stim\r11y10g06b19.jpeg",12,11,9,10,30,6,18,19,4,-3,1,0,1,0,1,1.703,1.506,1.51,0,2,"blå","4_1","4_2","1_2",1,0,1,1,"Left_lead","Female","Male","stick",43
"239","4","1","Female","Male",23,23,"Stim\r22y23g20b06.jpeg","Stim\r16y09g06b10.jpeg",22,16,23,9,20,6,6,10,1,-3,0,-1,1,0,0,2.035,2.115,0,2.215,2,"blå","4_1","4_2","1_2",4,0,1,0,"Right_lead","Male","Female","stick",46
"242","4","1","Female","Male",23,23,"Stim\r22y35g09b11.jpeg","Stim\r13y33g08b23.jpeg",22,13,35,33,9,8,11,23,-1,2,1,0,1,0,0,2.159,1.371,4.01,0,2,"gul","4_1","4_2","1_2",-2,1,0,1,"Left_lead","Female","Male","surrender",49
"249","4","1","Female","Male",23,23,"Stim\r09y17g32b21.jpeg","Stim\r13y21g23b09.jpeg",9,13,17,21,32,23,21,9,-4,3,0,-1,0,1,0,2.293,1.472,0,1.642,2,"gul","4_1","4_2","1_2",4,1,0,0,"Right_lead","Male","Female","surrender",56
"250","4","1","Female","Male",23,23,"Stim\r09y15g18b07.jpeg","Stim\r17y12g19b18.jpeg",9,17,15,12,18,19,7,18,-2,2,-1,0,1,0,1,1.804,4.033,4.565,0,2,"gul","4_1","4_2","1_2",-3,1,0,0,"Left_lead","Female","Male","stick",57
"251","4","1","Female","Male",23,23,"Stim\r10y03g03b07.jpeg","Stim\r03y06g12b09.jpeg",10,3,3,6,3,12,7,9,2,-2,-1,0,1,0,0,2.34,1.803,2.205,0,2,"gul","4_1","4_2","1_2",3,0,1,0,"Left_lead","Female","Male","surrender",58
"264","4","1","Female","Male",23,23,"Stim\r04y16g13b13.jpeg","Stim\r17y20g40b07.jpeg",4,17,16,20,13,40,13,7,-1,3,0,1,0,1,1,2.162,1.409,0,2.149,2,"gul","4_1","4_2","1_2",4,1,0,1,"Right_lead","Male","Female","stick",71
"265","4","1","Female","Male",23,23,"Stim\r03y11g01b26.jpeg","Stim\r08y12g20b03.jpeg",3,8,11,12,1,20,26,3,1,-2,1,0,1,0,1,1.976,1.439,1.407,0,2,"gul","4_1","4_2","1_2",1,0,1,1,"Left_lead","Female","Male","stick",72
"269","4","1","Female","Male",23,23,"Stim\r17y07g07b24.jpeg","Stim\r10y03g03b07.jpeg",17,10,7,3,7,3,24,7,-4,2,-1,0,1,0,1,1.57,2.632,1.267,0,2,"grøn","4_1","4_2","1_2",-4,1,0,0,"Left_lead","Female","Male","stick",76
"271","4","1","Female","Male",23,23,"Stim\r14y08g21b39.jpeg","Stim\r08y12g20b03.jpeg",14,8,8,12,21,20,39,3,1,-2,1,0,0,1,0,1.022,1.334,1.394,0,2,"grøn","4_1","4_2","1_2",-1,0,1,1,"Left_lead","Female","Male","stick",78
"272","4","1","Female","Male",23,23,"Stim\r21y24g16b04.jpeg","Stim\r09y15g18b07.jpeg",21,9,24,15,16,18,4,7,2,-2,0,1,1,0,1,1.148,4.692,0,2.5,2,"grøn","4_1","4_2","1_2",2,0,1,1,"Right_lead","Male","Female","surrender",79
"277","4","1","Female","Male",23,23,"Stim\r07y02g03b06.jpeg","Stim\r10y37g07b02.jpeg",7,10,2,37,3,7,6,2,-2,3,-1,0,0,1,0,1.665,3.007,2.355,0,2,"grøn","4_1","4_2","1_2",4,1,0,0,"Left_lead","Female","Male","stick",84
"283","4","1","Female","Male",23,23,"Stim\r10y07g11b10.jpeg","Stim\r18y19g14b27.jpeg",10,18,7,19,11,14,10,27,-2,3,1,0,0,1,1,1.827,1.573,2.359,0,2,"grøn","4_1","4_2","1_2",3,1,0,1,"Left_lead","Female","Male","surrender",90
"285","4","1","Female","Male",23,23,"Stim\r12y12g14b26.jpeg","Stim\r11y14g08b23.jpeg",12,11,12,14,14,8,26,23,-2,1,0,-1,1,0,1,1.432,2.695,0,2.127,2,"grøn","4_1","4_2","1_2",-6,1,0,0,"Right_lead","Male","Female","surrender",92
"288","4","1","Female","Male",23,23,"Stim\r07y14g27b22.jpeg","Stim\r12y09g30b18.jpeg",7,12,14,9,27,30,22,18,-1,3,1,0,0,1,1,1.625,3.323,2.853,0,2,"grøn","4_1","4_2","1_2",3,1,0,1,"Left_lead","Female","Male","surrender",95
"291","4","2","Female","Female",23,25,"Stim\r18y13g28b06.jpeg","Stim\r17y22g16b15.jpeg",18,17,13,22,28,16,6,15,-2,1,0,1,1,0,0,1.795,3.125,0,4.146,1,"rød","4_2","4_1","2_1",-1,1,0,1,"Right_lead","Female","Female","stick",2
"293","4","2","Female","Female",23,25,"Stim\r03y06g12b09.jpeg","Stim\r04y16g13b13.jpeg",3,4,6,16,12,13,9,13,-1,1,0,-1,0,1,0,3.913,2.425,0,3.904,1,"rød","4_2","4_1","2_1",1,1,0,0,"Right_lead","Female","Female","surrender",4
"294","4","2","Female","Female",23,25,"Stim\r06y19g29b08.jpeg","Stim\r02y10g14b11.jpeg",6,2,19,10,29,14,8,11,-2,1,1,0,1,0,0,6.194,2.573,12.72,0,1,"rød","4_2","4_1","2_1",-4,1,0,1,"Left_lead","Female","Female","surrender",5
"302","4","2","Female","Female",23,25,"Stim\r07y14g27b22.jpeg","Stim\r09y06g26b32.jpeg",7,9,14,6,27,26,22,32,-3,3,0,1,0,1,1,2.613,1.988,0,2.259,1,"rød","4_2","4_1","2_1",2,1,0,1,"Right_lead","Female","Female","stick",13
"304","4","2","Female","Female",23,25,"Stim\r10y02g36b05.jpeg","Stim\r13y24g05b28.jpeg",10,13,2,24,36,5,5,28,3,-1,1,0,1,0,1,2.405,2.233,5.932,0,1,"rød","4_2","4_1","2_1",3,0,1,1,"Left_lead","Female","Female","stick",15
"306","4","2","Female","Female",23,25,"Stim\r16y09g06b10.jpeg","Stim\r17y22g16b15.jpeg",16,17,9,22,6,16,10,15,2,-2,1,0,1,0,1,1.513,1.66,2.603,0,1,"rød","4_2","4_1","2_1",1,0,1,1,"Left_lead","Female","Female","stick",17
"307","4","2","Female","Female",23,25,"Stim\r21y01g04b27.jpeg","Stim\r20y14g02b19.jpeg",21,20,1,14,4,2,27,19,-2,2,0,1,1,0,0,3.893,2.837,0,2.07,1,"rød","4_2","4_1","2_1",-1,1,0,1,"Right_lead","Female","Female","stick",18
"309","4","2","Female","Female",23,25,"Stim\r22y02g34b05.jpeg","Stim\r19y10g06b15.jpeg",22,19,2,10,34,6,5,15,2,-4,0,-1,0,1,1,1.872,1.801,0,4.373,1,"rød","4_2","4_1","2_1",-3,0,1,0,"Right_lead","Female","Female","stick",20
"316","4","2","Female","Female",23,25,"Stim\r14y10g15b15.jpeg","Stim\r04y16g13b13.jpeg",14,4,10,16,15,13,15,13,-4,4,-1,0,1,0,1,1.782,1.496,6.432,0,1,"blå","4_2","4_1","2_1",-2,1,0,0,"Left_lead","Female","Female","stick",27
"318","4","2","Female","Female",23,25,"Stim\r16y21g04b04.jpeg","Stim\r15y16g12b03.jpeg",16,15,21,16,4,12,4,3,3,-1,-1,0,0,1,1,2.974,2.32,4.035,0,1,"blå","4_2","4_1","2_1",-1,0,1,0,"Left_lead","Female","Female","surrender",29
"320","4","2","Female","Female",23,25,"Stim\r13y21g23b09.jpeg","Stim\r15y05g12b10.jpeg",13,15,21,5,23,12,9,10,2,-3,1,0,1,0,1,1.768,1.666,3.14,0,1,"blå","4_2","4_1","2_1",1,0,1,1,"Left_lead","Female","Female","stick",31
"323","4","2","Female","Female",23,25,"Stim\r12y07g07b17.jpeg","Stim\r14y10g15b15.jpeg",12,14,7,10,7,15,17,15,4,-1,1,0,0,1,0,2.106,1.936,1.958,0,1,"blå","4_2","4_1","2_1",-2,0,1,1,"Left_lead","Female","Female","stick",34
"324","4","2","Female","Female",23,25,"Stim\r06y14g31b25.jpeg","Stim\r21y01g04b27.jpeg",6,21,14,1,31,4,25,27,-2,2,0,1,0,1,1,1.69,2.436,0,2.209,1,"blå","4_2","4_1","2_1",2,1,0,1,"Right_lead","Female","Female","stick",35
"325","4","2","Female","Female",23,25,"Stim\r22y35g09b11.jpeg","Stim\r06y19g29b08.jpeg",22,6,35,19,9,29,11,8,2,-1,-1,0,0,1,1,1.522,1.801,3.331,0,1,"blå","4_2","4_1","2_1",-3,0,1,0,"Left_lead","Female","Female","surrender",36
"331","4","2","Female","Female",23,25,"Stim\r03y11g01b26.jpeg","Stim\r18y19g14b27.jpeg",3,18,11,19,1,14,26,27,-2,4,1,0,0,1,1,1.413,1.327,1.918,0,1,"blå","4_2","4_1","2_1",1,1,0,1,"Left_lead","Female","Female","surrender",42
"333","4","2","Female","Female",23,25,"Stim\r07y14g27b22.jpeg","Stim\r20y04g39b23.jpeg",7,20,14,4,27,39,22,23,1,-3,0,-1,1,0,0,2.182,2.193,0,3.661,1,"blå","4_2","4_1","2_1",1,0,1,0,"Right_lead","Female","Female","stick",44
"334","4","2","Female","Female",23,25,"Stim\r19y15g35b05.jpeg","Stim\r17y11g38b07.jpeg",19,17,15,11,35,38,5,7,3,-2,1,0,1,0,1,2.588,1.797,1.776,0,1,"blå","4_2","4_1","2_1",2,0,1,1,"Left_lead","Female","Female","stick",45
"335","4","2","Female","Female",23,25,"Stim\r22y02g34b05.jpeg","Stim\r10y27g22b14.jpeg",22,10,2,27,34,22,5,14,-3,1,-1,0,0,1,0,1.714,1.296,2.338,0,1,"blå","4_2","4_1","2_1",9,1,0,0,"Left_lead","Female","Female","stick",46
"336","4","2","Female","Female",23,25,"Stim\r09y06g26b32.jpeg","Stim\r10y13g07b36.jpeg",9,10,6,13,26,7,32,36,-2,2,1,0,0,1,1,2.655,2.002,2.286,0,1,"blå","4_2","4_1","2_1",4,1,0,1,"Left_lead","Female","Female","surrender",47
"337","4","2","Female","Female",23,25,"Stim\r14y08g21b39.jpeg","Stim\r11y13g22b35.jpeg",14,11,8,13,21,22,39,35,-2,2,0,1,1,0,0,2.114,1.881,0,2.142,1,"blå","4_2","4_1","2_1",-4,1,0,1,"Right_lead","Female","Female","stick",48
"338","4","2","Female","Female",23,25,"Stim\r17y22g16b15.jpeg","Stim\r11y10g06b19.jpeg",17,11,22,10,16,6,15,19,-3,1,-1,0,0,1,0,2.046,1.192,1.835,0,1,"blå","4_2","4_1","2_1",4,1,0,0,"Left_lead","Female","Female","stick",49
"343","4","2","Female","Female",23,25,"Stim\r20y04g39b23.jpeg","Stim\r09y06g26b32.jpeg",20,9,4,6,39,26,23,32,-2,1,-1,0,0,1,0,1.652,1.432,1.931,0,1,"gul","4_2","4_1","2_1",2,1,0,0,"Left_lead","Female","Female","stick",54
"346","4","2","Female","Female",23,25,"Stim\r06y14g31b25.jpeg","Stim\r03y11g01b26.jpeg",6,3,14,11,31,1,25,26,-3,1,0,-1,1,0,1,1.421,2.45,0,2.304,1,"gul","4_2","4_1","2_1",-3,1,0,0,"Right_lead","Female","Female","surrender",57
"348","4","2","Female","Female",23,25,"Stim\r05y09g02b34.jpeg","Stim\r09y06g26b32.jpeg",5,9,9,6,2,26,34,32,-3,1,0,-1,1,0,1,1.544,1.525,0,1.837,1,"gul","4_2","4_1","2_1",-3,1,0,0,"Right_lead","Female","Female","surrender",59
"349","4","2","Female","Female",23,25,"Stim\r14y12g04b29.jpeg","Stim\r16y09g06b10.jpeg",14,16,12,9,4,6,29,10,2,-2,1,0,0,1,0,1.758,1.221,2.346,0,1,"gul","4_2","4_1","2_1",-3,0,1,1,"Left_lead","Female","Female","stick",60
"351","4","2","Female","Female",23,25,"Stim\r18y13g28b06.jpeg","Stim\r03y11g01b26.jpeg",18,3,13,11,28,1,6,26,-2,2,0,1,1,0,0,2.144,1.789,0,2.481,1,"gul","4_2","4_1","2_1",-2,1,0,1,"Right_lead","Female","Female","stick",62
"356","4","2","Female","Female",23,25,"Stim\r04y39g24b15.jpeg","Stim\r10y37g07b02.jpeg",4,10,39,37,24,7,15,2,-2,2,1,0,1,0,0,2.133,2.113,1.637,0,1,"gul","4_2","4_1","2_1",-2,1,0,1,"Left_lead","Female","Female","surrender",67
"360","4","2","Female","Female",23,25,"Stim\r11y10g06b19.jpeg","Stim\r09y07g06b09.jpeg",11,9,10,7,6,6,19,9,-3,2,0,-1,1,0,1,1.644,3.605,0,2.456,1,"gul","4_2","4_1","2_1",-3,1,0,0,"Right_lead","Female","Female","surrender",71
"361","4","2","Female","Female",23,25,"Stim\r22y35g09b11.jpeg","Stim\r06y36g16b14.jpeg",22,6,35,36,9,16,11,14,-2,2,-1,0,0,1,0,1.461,1.543,2.787,0,1,"gul","4_2","4_1","2_1",1,1,0,0,"Left_lead","Female","Female","stick",72
"362","4","2","Female","Female",23,25,"Stim\r02y19g24b04.jpeg","Stim\r19y15g35b05.jpeg",2,19,19,15,24,35,4,5,-2,3,1,0,1,0,0,1.86,3.335,2.306,0,1,"gul","4_2","4_1","2_1",-4,1,0,1,"Left_lead","Female","Female","surrender",73
"363","4","2","Female","Female",23,25,"Stim\r04y28g27b06.jpeg","Stim\r06y19g29b08.jpeg",4,6,28,19,27,29,6,8,2,-2,0,-1,1,0,0,1.71,1.604,0,2.528,1,"grøn","4_2","4_1","2_1",2,0,1,0,"Right_lead","Female","Female","stick",74
"365","4","2","Female","Female",23,25,"Stim\r19y10g06b15.jpeg","Stim\r12y07g07b17.jpeg",19,12,10,7,6,7,15,17,-1,1,-1,0,0,1,0,2.68,1.093,4.87,0,1,"grøn","4_2","4_1","2_1",1,1,0,0,"Left_lead","Female","Female","stick",76
"366","4","2","Female","Female",23,25,"Stim\r11y13g22b35.jpeg","Stim\r22y23g20b06.jpeg",11,22,13,23,22,20,35,6,3,-2,-1,0,0,1,1,2.136,1.231,2.999,0,1,"grøn","4_2","4_1","2_1",-2,0,1,0,"Left_lead","Female","Female","surrender",77
"367","4","2","Female","Female",23,25,"Stim\r09y15g18b07.jpeg","Stim\r17y22g16b15.jpeg",9,17,15,22,18,16,7,15,4,-2,1,0,0,1,0,1.983,3.466,4.368,0,1,"grøn","4_2","4_1","2_1",-2,0,1,1,"Left_lead","Female","Female","stick",78
"371","4","2","Female","Female",23,25,"Stim\r07y14g27b22.jpeg","Stim\r05y28g23b30.jpeg",7,5,14,28,27,23,22,30,-3,3,1,0,1,0,0,1.641,2.232,2.325,0,1,"grøn","4_2","4_1","2_1",-4,1,0,1,"Left_lead","Female","Female","surrender",82
"377","4","2","Female","Female",23,25,"Stim\r04y39g24b15.jpeg","Stim\r10y27g22b14.jpeg",4,10,39,27,24,22,15,14,-2,2,0,1,1,0,0,1.312,1.513,0,4.125,1,"grøn","4_2","4_1","2_1",-2,1,0,1,"Right_lead","Female","Female","stick",88
"378","4","2","Female","Female",23,25,"Stim\r09y17g32b21.jpeg","Stim\r22y02g34b05.jpeg",9,22,17,2,32,34,21,5,2,-1,1,0,1,0,1,2.484,1.396,2.135,0,1,"grøn","4_2","4_1","2_1",2,0,1,1,"Left_lead","Female","Female","stick",89
"383","4","2","Female","Female",23,25,"Stim\r04y16g13b13.jpeg","Stim\r15y05g12b10.jpeg",4,15,16,5,13,12,13,10,-2,1,0,-1,1,0,1,1.272,1.768,0,2.373,1,"grøn","4_2","4_1","2_1",-1,1,0,0,"Right_lead","Female","Female","surrender",94
"384","4","2","Female","Female",23,25,"Stim\r10y07g11b10.jpeg","Stim\r08y09g09b11.jpeg",10,8,7,9,11,9,10,11,2,-1,1,0,0,1,0,1.101,1.013,1.52,0,1,"grøn","4_2","4_1","2_1",-2,0,1,1,"Left_lead","Female","Female","stick",95
"385","4","2","Female","Female",23,25,"Stim\r05y40g33b16.jpeg","Stim\r22y02g34b05.jpeg",5,22,40,2,33,34,16,5,2,-2,0,-1,1,0,0,1.344,1.122,0,2.863,1,"grøn","4_2","4_1","2_1",1,0,1,0,"Right_lead","Female","Female","stick",96
"387","6","5","Female","Male",21,24,"Stim\r04y16g13b13.jpeg","Stim\r03y06g12b09.jpeg",4,3,16,6,13,12,13,9,2,-4,-1,0,0,1,1,3.113,3.625,4.323,0,1,"rød","6_5","6_1","5_1",-1,0,1,0,"Left_lead","Female","Male","surrender",1
"389","6","5","Female","Male",21,24,"Stim\r17y22g16b15.jpeg","Stim\r21y01g04b27.jpeg",17,21,22,1,16,4,15,27,1,-3,0,-1,1,0,0,1.897,4.443,0,8.885,1,"rød","6_5","6_1","5_1",4,0,1,0,"Right_lead","Male","Female","stick",3
"393","6","5","Female","Male",21,24,"Stim\r05y28g23b30.jpeg","Stim\r08y12g20b03.jpeg",5,8,28,12,23,20,30,3,1,-2,0,1,1,0,1,2.096,6.143,0,4.466,1,"rød","6_5","6_1","5_1",3,0,1,1,"Right_lead","Male","Female","surrender",7
"395","6","5","Female","Male",21,24,"Stim\r09y17g32b21.jpeg","Stim\r07y06g08b05.jpeg",9,7,17,6,32,8,21,5,1,-3,1,0,0,1,0,1.12,2.701,5.243,0,1,"rød","6_5","6_1","5_1",-2,0,1,1,"Left_lead","Female","Male","stick",9
"396","6","5","Female","Male",21,24,"Stim\r15y17g24b30.jpeg","Stim\r16y09g06b10.jpeg",15,16,17,9,24,6,30,10,1,-2,0,-1,1,0,0,1.095,2.272,0,4.89,1,"rød","6_5","6_1","5_1",1,0,1,0,"Right_lead","Male","Female","stick",10
"399","6","5","Female","Male",21,24,"Stim\r09y02g05b02.jpeg","Stim\r06y14g31b25.jpeg",9,6,2,14,5,31,2,25,-1,2,0,1,1,0,0,1.163,3.829,0,5.358,1,"rød","6_5","6_1","5_1",-3,1,0,1,"Right_lead","Male","Female","stick",13
"405","6","5","Female","Male",21,24,"Stim\r07y06g08b05.jpeg","Stim\r13y24g05b28.jpeg",7,13,6,24,8,5,5,28,1,-2,1,0,1,0,1,0.834,5.697,3.733,0,1,"rød","6_5","6_1","5_1",6,0,1,1,"Left_lead","Female","Male","stick",19
"409","6","5","Female","Male",21,24,"Stim\r11y14g08b23.jpeg","Stim\r07y06g08b05.jpeg",11,7,14,6,8,8,23,5,1,-2,1,0,0,1,0,1.095,3.925,4.475,0,1,"rød","6_5","6_1","5_1",-4,0,1,1,"Left_lead","Female","Male","stick",23
"412","6","5","Female","Male",21,24,"Stim\r08y12g20b03.jpeg","Stim\r22y23g20b06.jpeg",8,22,12,23,20,20,3,6,1,-1,0,1,1,0,1,1.375,4.738,0,6.774,1,"blå","6_5","6_1","5_1",3,0,1,1,"Right_lead","Male","Female","surrender",26
"415","6","5","Female","Male",21,24,"Stim\r15y17g24b30.jpeg","Stim\r13y24g05b28.jpeg",15,13,17,24,24,5,30,28,1,-2,0,1,0,1,0,1.428,1.961,0,3.637,1,"blå","6_5","6_1","5_1",-2,0,1,1,"Right_lead","Male","Female","surrender",29
"422","6","5","Female","Male",21,24,"Stim\r12y09g30b18.jpeg","Stim\r05y40g33b16.jpeg",12,5,9,40,30,33,18,16,1,-2,0,-1,0,1,1,0.949,1.995,0,2.131,1,"blå","6_5","6_1","5_1",-2,0,1,0,"Right_lead","Male","Female","stick",36
"427","6","5","Female","Male",21,24,"Stim\r13y24g05b28.jpeg","Stim\r12y07g16b25.jpeg",13,12,24,7,5,16,28,25,2,-2,-1,0,0,1,1,1.184,2.397,4.033,0,1,"blå","6_5","6_1","5_1",-3,0,1,0,"Left_lead","Female","Male","surrender",41
"431","6","5","Female","Male",21,24,"Stim\r05y40g33b16.jpeg","Stim\r12y07g07b17.jpeg",5,12,40,7,33,7,16,17,2,-1,-1,0,1,0,0,0.935,2.365,3.144,0,1,"blå","6_5","6_1","5_1",1,0,1,0,"Left_lead","Female","Male","surrender",45
"434","6","5","Female","Male",21,24,"Stim\r11y14g08b23.jpeg","Stim\r03y11g01b26.jpeg",11,3,14,11,8,1,23,26,2,-3,0,-1,1,0,0,1.034,1.593,0,3.549,1,"blå","6_5","6_1","5_1",3,0,1,0,"Right_lead","Male","Female","stick",48
"439","6","5","Female","Male",21,24,"Stim\r09y17g32b21.jpeg","Stim\r17y20g40b07.jpeg",9,17,17,20,32,40,21,7,1,-4,-1,0,1,0,0,0.79,1.919,2.982,0,1,"gul","6_5","6_1","5_1",3,0,1,0,"Left_lead","Female","Male","surrender",53
"443","6","5","Female","Male",21,24,"Stim\r15y17g24b30.jpeg","Stim\r18y19g14b27.jpeg",15,18,17,19,24,14,30,27,1,-3,0,-1,1,0,0,1.032,1.844,0,5.399,1,"gul","6_5","6_1","5_1",2,0,1,0,"Right_lead","Male","Female","stick",57
"446","6","5","Female","Male",21,24,"Stim\r08y23g10b29.jpeg","Stim\r13y24g05b28.jpeg",8,13,23,24,10,5,29,28,1,-2,1,0,1,0,1,0.706,2.052,2.927,0,1,"gul","6_5","6_1","5_1",1,0,1,1,"Left_lead","Female","Male","stick",60
"447","6","5","Female","Male",21,24,"Stim\r17y11g38b07.jpeg","Stim\r11y13g22b35.jpeg",17,11,11,13,38,22,7,35,1,-2,1,0,1,0,1,0.787,1.134,3.745,0,1,"gul","6_5","6_1","5_1",2,0,1,1,"Left_lead","Female","Male","stick",61
"452","6","5","Female","Male",21,24,"Stim\r02y19g24b04.jpeg","Stim\r08y12g20b03.jpeg",2,8,19,12,24,20,4,3,1,-2,0,1,0,1,0,0.916,1.246,0,2.342,1,"gul","6_5","6_1","5_1",-7,0,1,1,"Right_lead","Male","Female","surrender",66
"455","6","5","Female","Male",21,24,"Stim\r10y02g36b05.jpeg","Stim\r21y03g15b37.jpeg",10,21,2,3,36,15,5,37,1,-2,1,0,1,0,1,0.759,2.472,2.042,0,1,"gul","6_5","6_1","5_1",1,0,1,1,"Left_lead","Female","Male","stick",69
"456","6","5","Female","Male",21,24,"Stim\r21y24g16b04.jpeg","Stim\r14y20g16b10.jpeg",21,14,24,20,16,16,4,10,1,-2,-1,0,0,1,1,1.138,2.485,1.998,0,1,"gul","6_5","6_1","5_1",-4,0,1,0,"Left_lead","Female","Male","surrender",70
"457","6","5","Female","Male",21,24,"Stim\r08y09g09b11.jpeg","Stim\r14y12g04b29.jpeg",8,14,9,12,9,4,11,29,1,-1,-1,0,1,0,0,0.878,4.074,2.043,0,1,"gul","6_5","6_1","5_1",3,0,1,0,"Left_lead","Female","Male","surrender",71
"459","6","5","Female","Male",21,24,"Stim\r03y03g02b05.jpeg","Stim\r09y06g26b32.jpeg",3,9,3,6,2,26,5,32,1,-1,-1,0,1,0,0,0.684,3.031,2.061,0,1,"gul","6_5","6_1","5_1",3,0,1,0,"Left_lead","Female","Male","surrender",73
"460","6","5","Female","Male",21,24,"Stim\r15y05g12b10.jpeg","Stim\r13y33g08b23.jpeg",15,13,5,33,12,8,10,23,-1,1,-1,0,1,0,1,0.941,3.32,1.909,0,1,"grøn","6_5","6_1","5_1",-4,1,0,0,"Left_lead","Female","Male","stick",74
"461","6","5","Female","Male",21,24,"Stim\r13y33g08b23.jpeg","Stim\r08y23g10b29.jpeg",13,8,33,23,8,10,23,29,1,-1,-1,0,1,0,0,0.848,2.194,2.061,0,1,"grøn","6_5","6_1","5_1",2,0,1,0,"Left_lead","Female","Male","surrender",75
"464","6","5","Female","Male",21,24,"Stim\r20y04g39b23.jpeg","Stim\r12y09g30b18.jpeg",20,12,4,9,39,30,23,18,-1,2,0,-1,1,0,1,0.785,3.015,0,3.627,1,"grøn","6_5","6_1","5_1",-9,1,0,0,"Right_lead","Male","Female","surrender",78
"465","6","5","Female","Male",21,24,"Stim\r12y12g14b26.jpeg","Stim\r17y22g16b15.jpeg",12,17,12,22,14,16,26,15,-1,1,0,1,0,1,1,1.659,2.005,0,3.729,1,"grøn","6_5","6_1","5_1",2,1,0,1,"Right_lead","Male","Female","stick",79
"468","6","5","Female","Male",21,24,"Stim\r09y15g18b07.jpeg","Stim\r11y13g22b35.jpeg",9,11,15,13,18,22,7,35,1,-2,0,-1,1,0,0,0.953,1.882,0,2.211,1,"grøn","6_5","6_1","5_1",4,0,1,0,"Right_lead","Male","Female","stick",82
"471","6","5","Female","Male",21,24,"Stim\r05y40g33b16.jpeg","Stim\r09y17g32b21.jpeg",5,9,40,17,33,32,16,21,1,-1,-1,0,0,1,1,1.223,3.635,3.675,0,1,"grøn","6_5","6_1","5_1",-1,0,1,0,"Left_lead","Female","Male","surrender",85
"472","6","5","Female","Male",21,24,"Stim\r12y09g30b18.jpeg","Stim\r09y06g26b32.jpeg",12,9,9,6,30,26,18,32,1,-2,0,1,0,1,0,0.709,2.48,0,1.461,1,"grøn","6_5","6_1","5_1",-4,0,1,1,"Right_lead","Male","Female","surrender",86
"473","6","5","Female","Male",21,24,"Stim\r09y06g26b32.jpeg","Stim\r07y14g27b22.jpeg",9,7,6,14,26,27,32,22,-2,1,-1,0,0,1,0,1.698,2.711,3.019,0,1,"grøn","6_5","6_1","5_1",1,1,0,0,"Left_lead","Female","Male","stick",87
"478","6","5","Female","Male",21,24,"Stim\r11y26g25b38.jpeg","Stim\r10y27g22b14.jpeg",11,10,26,27,25,22,38,14,2,-3,0,1,0,1,0,1.075,2.538,0,2.781,1,"grøn","6_5","6_1","5_1",-3,0,1,1,"Right_lead","Male","Female","surrender",92
"479","6","5","Female","Male",21,24,"Stim\r19y10g06b15.jpeg","Stim\r10y37g07b02.jpeg",19,10,10,37,6,7,15,2,1,-3,0,-1,1,0,0,1.577,1.639,0,1.209,1,"grøn","6_5","6_1","5_1",1,0,1,0,"Right_lead","Male","Female","stick",93
"481","6","5","Female","Male",21,24,"Stim\r08y12g20b03.jpeg","Stim\r17y22g16b15.jpeg",8,17,12,22,20,16,3,15,1,-2,1,0,0,1,0,0.871,1.117,2.366,0,1,"grøn","6_5","6_1","5_1",-4,0,1,1,"Left_lead","Female","Male","stick",95
"483","6","5","Female","Male",21,24,"Stim\r22y23g20b06.jpeg","Stim\r14y20g16b10.jpeg",22,14,23,20,20,16,6,10,1,-3,-1,0,0,1,1,0.939,1.502,1.562,0,1,"grøn","6_5","6_1","5_1",-4,0,1,0,"Left_lead","Female","Male","surrender",97
"484","7","5","Male","Male",24,24,"Stim\r09y02g05b02.jpeg","Stim\r08y23g10b29.jpeg",9,8,2,23,5,10,2,29,2,-3,0,-1,0,1,1,1.664,1.343,0,3.303,2,"rød","7_5","7_2","5_2",-1,0,1,0,"Right_lead","Male","Male","stick",1
"485","7","5","Male","Male",24,24,"Stim\r15y05g12b10.jpeg","Stim\r12y07g16b25.jpeg",15,12,5,7,12,16,10,25,2,-3,0,-1,0,1,1,1.149,1.112,0,3.481,2,"rød","7_5","7_2","5_2",-3,0,1,0,"Right_lead","Male","Male","stick",2
"494","7","5","Male","Male",24,24,"Stim\r10y02g36b05.jpeg","Stim\r12y07g07b17.jpeg",10,12,2,7,36,7,5,17,3,-2,0,1,1,0,1,1.337,4.667,0,2.649,2,"rød","7_5","7_2","5_2",2,0,1,1,"Right_lead","Male","Male","surrender",11
"501","7","5","Male","Male",24,24,"Stim\r14y20g16b10.jpeg","Stim\r13y33g08b23.jpeg",14,13,20,33,16,8,10,23,3,-3,0,1,0,1,0,1.124,1.186,0,2.387,2,"rød","7_5","7_2","5_2",-1,0,1,1,"Right_lead","Male","Male","surrender",18
"502","7","5","Male","Male",24,24,"Stim\r10y03g03b07.jpeg","Stim\r07y06g08b05.jpeg",10,7,3,6,3,8,7,5,2,-3,0,-1,0,1,1,1.4,1.429,0,1.496,2,"rød","7_5","7_2","5_2",-3,0,1,0,"Right_lead","Male","Male","stick",19
"505","7","5","Male","Male",24,24,"Stim\r07y06g08b05.jpeg","Stim\r11y26g25b38.jpeg",7,11,6,26,8,25,5,38,3,-4,1,0,1,0,1,0.972,1.301,4.632,0,2,"rød","7_5","7_2","5_2",4,0,1,1,"Left_lead","Male","Male","stick",22
"506","7","5","Male","Male",24,24,"Stim\r09y15g18b07.jpeg","Stim\r10y02g36b05.jpeg",9,10,15,2,18,36,7,5,-2,2,-1,0,0,1,0,1.496,1.775,3.664,0,2,"rød","7_5","7_2","5_2",1,1,0,0,"Left_lead","Male","Male","stick",23
"508","7","5","Male","Male",24,24,"Stim\r14y08g21b39.jpeg","Stim\r09y06g26b32.jpeg",14,9,8,6,21,26,39,32,3,-2,0,1,0,1,0,1.189,1.669,0,1.261,2,"blå","7_5","7_2","5_2",-7,0,1,1,"Right_lead","Male","Male","surrender",25
"509","7","5","Male","Male",24,24,"Stim\r13y24g05b28.jpeg","Stim\r15y17g24b30.jpeg",13,15,24,17,5,24,28,30,2,-2,0,1,1,0,1,1.056,0.986,0,2.329,2,"blå","7_5","7_2","5_2",2,0,1,1,"Right_lead","Male","Male","surrender",26
"512","7","5","Male","Male",24,24,"Stim\r07y06g08b05.jpeg","Stim\r06y36g16b14.jpeg",7,6,6,36,8,16,5,14,3,-2,1,0,1,0,1,1.05,1.729,2.381,0,2,"blå","7_5","7_2","5_2",9,0,1,1,"Left_lead","Male","Male","stick",29
"513","7","5","Male","Male",24,24,"Stim\r16y21g04b04.jpeg","Stim\r06y19g29b08.jpeg",16,6,21,19,4,29,4,8,2,-3,0,-1,1,0,0,0.788,1.387,0,1.317,2,"blå","7_5","7_2","5_2",4,0,1,0,"Right_lead","Male","Male","stick",30
"515","7","5","Male","Male",24,24,"Stim\r12y07g07b17.jpeg","Stim\r12y09g30b18.jpeg",12,12,7,9,7,30,17,18,2,-2,-1,0,1,0,0,1.261,1.404,2.817,0,2,"blå","7_5","7_2","5_2",1,0,1,0,"Left_lead","Male","Male","surrender",32
"517","7","5","Male","Male",24,24,"Stim\r11y14g08b23.jpeg","Stim\r18y19g14b27.jpeg",11,18,14,19,8,14,23,27,2,-4,-1,0,1,0,0,0.931,1.394,2.47,0,2,"blå","7_5","7_2","5_2",4,0,1,0,"Left_lead","Male","Male","surrender",34
"524","7","5","Male","Male",24,24,"Stim\r03y03g02b05.jpeg","Stim\r09y07g06b09.jpeg",3,9,3,7,2,6,5,9,-2,2,-1,0,0,1,0,1.013,1.509,3.098,0,2,"blå","7_5","7_2","5_2",4,1,0,0,"Left_lead","Male","Male","stick",41
"526","7","5","Male","Male",24,24,"Stim\r07y02g03b06.jpeg","Stim\r04y39g24b15.jpeg",7,4,2,39,3,24,6,15,2,-3,0,1,1,0,1,0.844,1.39,0,1.395,2,"blå","7_5","7_2","5_2",9,0,1,1,"Right_lead","Male","Male","surrender",43
"527","7","5","Male","Male",24,24,"Stim\r12y07g16b25.jpeg","Stim\r07y14g27b22.jpeg",12,7,7,14,16,27,25,22,4,-2,0,1,0,1,0,1.314,2.364,0,1.122,2,"blå","7_5","7_2","5_2",-3,0,1,1,"Right_lead","Male","Male","surrender",44
"529","7","5","Male","Male",24,24,"Stim\r17y12g19b18.jpeg","Stim\r19y10g06b15.jpeg",17,19,12,10,19,6,18,15,2,-3,-1,0,0,1,1,1.276,2.037,4.72,0,2,"blå","7_5","7_2","5_2",-3,0,1,0,"Left_lead","Male","Male","surrender",46
"530","7","5","Male","Male",24,24,"Stim\r18y19g14b27.jpeg","Stim\r06y14g31b25.jpeg",18,6,19,14,14,31,27,25,2,-3,0,1,0,1,0,0.983,2.691,0,1.079,2,"blå","7_5","7_2","5_2",-2,0,1,1,"Right_lead","Male","Male","surrender",47
"532","7","5","Male","Male",24,24,"Stim\r19y15g35b05.jpeg","Stim\r09y17g32b21.jpeg",19,9,15,17,35,32,5,21,2,-4,0,-1,1,0,0,0.947,1.443,0,1.027,2,"gul","7_5","7_2","5_2",2,0,1,0,"Right_lead","Male","Male","stick",49
"534","7","5","Male","Male",24,24,"Stim\r22y23g20b06.jpeg","Stim\r16y21g04b04.jpeg",22,16,23,21,20,4,6,4,-4,4,0,1,1,0,0,1.402,1.662,0,4.235,2,"gul","7_5","7_2","5_2",-2,1,0,1,"Right_lead","Male","Male","stick",51
"535","7","5","Male","Male",24,24,"Stim\r11y10g06b19.jpeg","Stim\r15y16g12b03.jpeg",11,15,10,16,6,12,19,3,2,-2,1,0,1,0,1,0.905,1.4,2.146,0,2,"gul","7_5","7_2","5_2",6,0,1,1,"Left_lead","Male","Male","stick",52
"538","7","5","Male","Male",24,24,"Stim\r22y02g34b05.jpeg","Stim\r03y06g12b09.jpeg",22,3,2,6,34,12,5,9,-2,2,1,0,0,1,1,1.228,1.273,2.998,0,2,"gul","7_5","7_2","5_2",4,1,0,1,"Left_lead","Male","Male","surrender",55
"543","7","5","Male","Male",24,24,"Stim\r18y13g28b06.jpeg","Stim\r03y11g01b26.jpeg",18,3,13,11,28,1,6,26,2,-2,1,0,0,1,0,0.975,1.536,1.422,0,2,"gul","7_5","7_2","5_2",-2,0,1,1,"Left_lead","Male","Male","stick",60
"545","7","5","Male","Male",24,24,"Stim\r07y06g08b05.jpeg","Stim\r02y10g14b11.jpeg",7,2,6,10,8,14,5,11,-1,2,0,1,0,1,1,1.024,2.57,0,1.416,2,"gul","7_5","7_2","5_2",4,1,0,1,"Right_lead","Male","Male","stick",62
"546","7","5","Male","Male",24,24,"Stim\r20y04g39b23.jpeg","Stim\r12y07g16b25.jpeg",20,12,4,7,39,16,23,25,2,-2,0,1,1,0,1,0.965,1.583,0,1.375,2,"gul","7_5","7_2","5_2",3,0,1,1,"Right_lead","Male","Male","surrender",63
"554","7","5","Male","Male",24,24,"Stim\r15y05g12b10.jpeg","Stim\r07y06g08b05.jpeg",15,7,5,6,12,8,10,5,-2,2,0,-1,0,1,0,0.933,1.763,0,1.48,2,"gul","7_5","7_2","5_2",1,1,0,0,"Right_lead","Male","Male","surrender",71
"556","7","5","Male","Male",24,24,"Stim\r12y07g16b25.jpeg","Stim\r17y12g19b18.jpeg",12,17,7,12,16,19,25,18,-2,2,-1,0,0,1,0,1.304,2.717,2.61,0,2,"grøn","7_5","7_2","5_2",3,1,0,0,"Left_lead","Male","Male","stick",73
"558","7","5","Male","Male",24,24,"Stim\r06y19g29b08.jpeg","Stim\r09y06g26b32.jpeg",6,9,19,6,29,26,8,32,2,-3,-1,0,0,1,1,0.939,2.935,1.914,0,2,"grøn","7_5","7_2","5_2",-3,0,1,0,"Left_lead","Male","Male","surrender",75
"559","7","5","Male","Male",24,24,"Stim\r10y07g11b10.jpeg","Stim\r10y13g07b36.jpeg",10,10,7,13,11,7,10,36,2,-4,-1,0,0,1,1,1.701,1.266,1.516,0,2,"grøn","7_5","7_2","5_2",-4,0,1,0,"Left_lead","Male","Male","surrender",76
"560","7","5","Male","Male",24,24,"Stim\r19y10g06b15.jpeg","Stim\r07y02g03b06.jpeg",19,7,10,2,6,3,15,6,-2,1,0,-1,1,0,1,1.218,2.507,0,1.598,2,"grøn","7_5","7_2","5_2",-3,1,0,0,"Right_lead","Male","Male","surrender",77
"561","7","5","Male","Male",24,24,"Stim\r17y20g40b07.jpeg","Stim\r20y04g39b23.jpeg",17,20,20,4,40,39,7,23,4,-4,1,0,0,1,0,1.325,2.621,3.512,0,2,"grøn","7_5","7_2","5_2",-1,0,1,1,"Left_lead","Male","Male","stick",78
"563","7","5","Male","Male",24,24,"Stim\r04y16g13b13.jpeg","Stim\r14y20g16b10.jpeg",4,14,16,20,13,16,13,10,1,-4,0,-1,1,0,0,1.096,1.16,0,1.059,2,"grøn","7_5","7_2","5_2",3,0,1,0,"Right_lead","Male","Male","stick",80
"564","7","5","Male","Male",24,24,"Stim\r09y06g26b32.jpeg","Stim\r07y14g27b22.jpeg",9,7,6,14,26,27,32,22,-3,3,0,1,0,1,1,1.396,1.975,0,1.879,2,"grøn","7_5","7_2","5_2",1,1,0,1,"Right_lead","Male","Male","stick",81
"569","7","5","Male","Male",24,24,"Stim\r05y09g02b34.jpeg","Stim\r14y12g04b29.jpeg",5,14,9,12,2,4,34,29,1,-2,-1,0,1,0,0,1.316,1.504,2.239,0,2,"grøn","7_5","7_2","5_2",2,0,1,0,"Left_lead","Male","Male","surrender",86
"575","7","5","Male","Male",24,24,"Stim\r17y11g38b07.jpeg","Stim\r22y02g34b05.jpeg",17,22,11,2,38,34,7,5,-3,4,0,-1,1,0,1,1.173,1.596,0,2.06,2,"grøn","7_5","7_2","5_2",-4,1,0,0,"Right_lead","Male","Male","surrender",92
"580","7","8","Male","Female",24,21,"Stim\r05y28g23b30.jpeg","Stim\r07y02g03b06.jpeg",5,7,28,2,23,3,30,6,2,-2,0,-1,1,0,0,3.849,2.096,0,6.053,1,"rød","7_8","7_1","8_1",2,0,1,0,"Right_lead","Female","Male","stick",1
"581","7","8","Male","Female",24,21,"Stim\r10y07g11b10.jpeg","Stim\r12y07g16b25.jpeg",10,12,7,7,11,16,10,25,3,-1,0,1,1,0,1,2.73,3.792,0,2.438,1,"rød","7_8","7_1","8_1",2,0,1,1,"Right_lead","Female","Male","surrender",2
"585","7","8","Male","Female",24,21,"Stim\r14y08g21b39.jpeg","Stim\r16y21g04b04.jpeg",14,16,8,21,21,4,39,4,2,-2,0,-1,1,0,0,2.66,1.378,0,1.612,1,"rød","7_8","7_1","8_1",2,0,1,0,"Right_lead","Female","Male","stick",6
"586","7","8","Male","Female",24,21,"Stim\r14y10g15b15.jpeg","Stim\r12y07g16b25.jpeg",14,12,10,7,15,16,15,25,2,-1,0,1,0,1,0,1.612,1.917,0,1.266,1,"rød","7_8","7_1","8_1",-2,0,1,1,"Right_lead","Female","Male","surrender",7
"587","7","8","Male","Female",24,21,"Stim\r10y37g07b02.jpeg","Stim\r09y02g05b02.jpeg",10,9,37,2,7,5,2,2,2,-2,0,1,0,1,0,2.12,2.449,0,3.001,1,"rød","7_8","7_1","8_1",-1,0,1,1,"Right_lead","Female","Male","surrender",8
"588","7","8","Male","Female",24,21,"Stim\r21y24g16b04.jpeg","Stim\r17y20g40b07.jpeg",21,17,24,20,16,40,4,7,2,-2,1,0,0,1,0,3.135,1.298,5.299,0,1,"rød","7_8","7_1","8_1",-4,0,1,1,"Left_lead","Male","Female","stick",9
"590","7","8","Male","Female",24,21,"Stim\r17y11g38b07.jpeg","Stim\r21y24g16b04.jpeg",17,21,11,24,38,16,7,4,2,-2,0,-1,1,0,0,2.538,1.068,0,0.777,1,"rød","7_8","7_1","8_1",4,0,1,0,"Right_lead","Female","Male","stick",11
"591","7","8","Male","Female",24,21,"Stim\r09y06g26b32.jpeg","Stim\r11y14g08b23.jpeg",9,11,6,14,26,8,32,23,2,-2,0,1,1,0,1,1.874,1.525,0,1.089,1,"rød","7_8","7_1","8_1",2,0,1,1,"Right_lead","Female","Male","surrender",12
"592","7","8","Male","Female",24,21,"Stim\r15y16g12b03.jpeg","Stim\r12y09g30b18.jpeg",15,12,16,9,12,30,3,18,2,-2,1,0,0,1,0,1.958,2.254,2.132,0,1,"rød","7_8","7_1","8_1",-3,0,1,1,"Left_lead","Male","Female","stick",13
"593","7","8","Male","Female",24,21,"Stim\r15y17g24b30.jpeg","Stim\r11y26g25b38.jpeg",15,11,17,26,24,25,30,38,2,-2,1,0,0,1,0,3.962,1.368,3.267,0,1,"rød","7_8","7_1","8_1",-4,0,1,1,"Left_lead","Male","Female","stick",14
"597","7","8","Male","Female",24,21,"Stim\r17y12g19b18.jpeg","Stim\r09y17g32b21.jpeg",17,9,12,17,19,32,18,21,2,-3,-1,0,0,1,1,1.208,1.672,2.606,0,1,"rød","7_8","7_1","8_1",-8,0,1,0,"Left_lead","Male","Female","surrender",18
"598","7","8","Male","Female",24,21,"Stim\r10y13g07b36.jpeg","Stim\r07y06g08b05.jpeg",10,7,13,6,7,8,36,5,1,-2,-1,0,0,1,1,4.356,1.099,1.488,0,1,"rød","7_8","7_1","8_1",-3,0,1,0,"Left_lead","Male","Female","surrender",19
"601","7","8","Male","Female",24,21,"Stim\r11y14g08b23.jpeg","Stim\r14y10g15b15.jpeg",11,14,14,10,8,15,23,15,2,-4,1,0,1,0,1,1.22,1.683,1.772,0,1,"rød","7_8","7_1","8_1",3,0,1,1,"Left_lead","Male","Female","stick",22
"603","7","8","Male","Female",24,21,"Stim\r14y20g16b10.jpeg","Stim\r10y02g36b05.jpeg",14,10,20,2,16,36,10,5,2,-3,-1,0,0,1,1,1.971,1.385,1.633,0,1,"rød","7_8","7_1","8_1",-4,0,1,0,"Left_lead","Male","Female","surrender",24
"606","7","8","Male","Female",24,21,"Stim\r11y10g06b19.jpeg","Stim\r17y22g16b15.jpeg",11,17,10,22,6,16,19,15,1,-3,1,0,0,1,0,1.92,1.4,1.373,0,1,"blå","7_8","7_1","8_1",-4,0,1,1,"Left_lead","Male","Female","stick",27
"607","7","8","Male","Female",24,21,"Stim\r16y21g04b04.jpeg","Stim\r09y02g05b02.jpeg",16,9,21,2,4,5,4,2,-1,2,0,1,1,0,0,1.934,1.465,0,1.258,1,"blå","7_8","7_1","8_1",-2,1,0,1,"Right_lead","Female","Male","stick",28
"608","7","8","Male","Female",24,21,"Stim\r22y02g34b05.jpeg","Stim\r09y07g06b09.jpeg",22,9,2,7,34,6,5,9,1,-2,0,1,1,0,1,2.431,1.209,0,2.097,1,"blå","7_8","7_1","8_1",4,0,1,1,"Right_lead","Female","Male","surrender",29
"609","7","8","Male","Female",24,21,"Stim\r10y37g07b02.jpeg","Stim\r16y21g04b04.jpeg",10,16,37,21,7,4,2,4,2,-1,1,0,1,0,1,1.413,2.23,1.518,0,1,"blå","7_8","7_1","8_1",2,0,1,1,"Left_lead","Male","Female","stick",30
"610","7","8","Male","Female",24,21,"Stim\r13y21g23b09.jpeg","Stim\r09y15g18b07.jpeg",13,9,21,15,23,18,9,7,-2,2,1,0,1,0,0,3.018,1.165,1.225,0,1,"blå","7_8","7_1","8_1",-2,1,0,1,"Left_lead","Male","Female","surrender",31
"611","7","8","Male","Female",24,21,"Stim\r14y20g16b10.jpeg","Stim\r17y11g38b07.jpeg",14,17,20,11,16,38,10,7,-2,2,-1,0,1,0,1,1.683,3.514,2.051,0,1,"blå","7_8","7_1","8_1",-3,1,0,0,"Left_lead","Male","Female","stick",32
"615","7","8","Male","Female",24,21,"Stim\r03y06g12b09.jpeg","Stim\r07y02g03b06.jpeg",3,7,6,2,12,3,9,6,2,-3,1,0,0,1,0,1.095,1.256,1.959,0,1,"blå","7_8","7_1","8_1",-3,0,1,1,"Left_lead","Male","Female","stick",36
"616","7","8","Male","Female",24,21,"Stim\r02y19g24b04.jpeg","Stim\r15y16g12b03.jpeg",2,15,19,16,24,12,4,3,-2,2,1,0,1,0,0,1.229,1.391,2.438,0,1,"blå","7_8","7_1","8_1",-1,1,0,1,"Left_lead","Male","Female","surrender",37
"617","7","8","Male","Female",24,21,"Stim\r12y07g07b17.jpeg","Stim\r13y33g08b23.jpeg",12,13,7,33,7,8,17,23,2,-3,0,-1,1,0,0,1.002,0.983,0,3.339,1,"blå","7_8","7_1","8_1",6,0,1,0,"Right_lead","Female","Male","stick",38
"618","7","8","Male","Female",24,21,"Stim\r05y40g33b16.jpeg","Stim\r14y10g15b15.jpeg",5,14,40,10,33,15,16,15,2,-2,1,0,0,1,0,2.031,1.05,2.82,0,1,"blå","7_8","7_1","8_1",-1,0,1,1,"Left_lead","Male","Female","stick",39
"619","7","8","Male","Female",24,21,"Stim\r21y01g04b27.jpeg","Stim\r13y24g05b28.jpeg",21,13,1,24,4,5,27,28,2,-4,-1,0,1,0,0,1.246,1.251,2.498,0,1,"blå","7_8","7_1","8_1",1,0,1,0,"Left_lead","Male","Female","surrender",40
"621","7","8","Male","Female",24,21,"Stim\r09y06g26b32.jpeg","Stim\r11y13g22b35.jpeg",9,11,6,13,26,22,32,35,2,-3,1,0,1,0,1,1.112,1.509,1.336,0,1,"blå","7_8","7_1","8_1",3,0,1,1,"Left_lead","Male","Female","stick",42
"624","7","8","Male","Female",24,21,"Stim\r02y10g14b11.jpeg","Stim\r16y09g06b10.jpeg",2,16,10,9,14,6,11,10,2,-2,0,1,0,1,0,1.072,1.482,0,1.206,1,"blå","7_8","7_1","8_1",-1,0,1,1,"Right_lead","Female","Male","surrender",45
"629","7","8","Male","Female",24,21,"Stim\r11y26g25b38.jpeg","Stim\r05y28g23b30.jpeg",11,5,26,28,25,23,38,30,2,-2,0,1,1,0,1,1.066,1.675,0,1.007,1,"gul","7_8","7_1","8_1",2,0,1,1,"Right_lead","Female","Male","surrender",50
"634","7","8","Male","Female",24,21,"Stim\r13y24g05b28.jpeg","Stim\r10y27g22b14.jpeg",13,10,24,27,5,22,28,14,-4,3,-1,0,0,1,0,1.786,1.434,5.519,0,1,"gul","7_8","7_1","8_1",3,1,0,0,"Left_lead","Male","Female","stick",55
"635","7","8","Male","Female",24,21,"Stim\r11y10g06b19.jpeg","Stim\r15y16g12b03.jpeg",11,15,10,16,6,12,19,3,2,-2,-1,0,1,0,0,1.459,1.472,2.687,0,1,"gul","7_8","7_1","8_1",6,0,1,0,"Left_lead","Male","Female","surrender",56
"643","7","8","Male","Female",24,21,"Stim\r14y20g16b10.jpeg","Stim\r12y12g14b26.jpeg",14,12,20,12,16,14,10,26,-2,2,0,-1,1,0,1,1.277,1.717,0,0.937,1,"gul","7_8","7_1","8_1",-8,1,0,0,"Right_lead","Female","Male","surrender",64
"650","7","8","Male","Female",24,21,"Stim\r20y14g02b19.jpeg","Stim\r19y15g35b05.jpeg",20,19,14,15,2,35,19,5,2,-3,1,0,1,0,1,0.831,1.496,1.374,0,1,"gul","7_8","7_1","8_1",1,0,1,1,"Left_lead","Male","Female","stick",71
"653","7","8","Male","Female",24,21,"Stim\r17y20g40b07.jpeg","Stim\r20y04g39b23.jpeg",17,20,20,4,40,39,7,23,2,-2,0,1,0,1,0,1.102,1.798,0,0.732,1,"grøn","7_8","7_1","8_1",-1,0,1,1,"Right_lead","Female","Male","surrender",74
"654","7","8","Male","Female",24,21,"Stim\r22y23g20b06.jpeg","Stim\r14y20g16b10.jpeg",22,14,23,20,20,16,6,10,-2,2,0,-1,1,0,1,1.592,1.668,0,0.93,1,"grøn","7_8","7_1","8_1",-4,1,0,0,"Right_lead","Female","Male","surrender",75
"661","7","8","Male","Female",24,21,"Stim\r17y22g16b15.jpeg","Stim\r02y10g14b11.jpeg",17,2,22,10,16,14,15,11,-2,2,-1,0,1,0,1,1.088,0.901,2.28,0,1,"grøn","7_8","7_1","8_1",-2,1,0,0,"Left_lead","Male","Female","stick",82
"672","7","8","Male","Female",24,21,"Stim\r21y03g15b37.jpeg","Stim\r06y36g16b14.jpeg",21,6,3,36,15,16,37,14,-4,2,0,-1,0,1,0,1.876,1.057,0,0.696,1,"grøn","7_8","7_1","8_1",1,1,0,0,"Right_lead","Female","Male","surrender",93
"675","7","8","Male","Female",24,21,"Stim\r03y11g01b26.jpeg","Stim\r05y09g02b34.jpeg",3,5,11,9,1,2,26,34,-2,1,1,0,0,1,1,0.915,0.695,2.315,0,1,"grøn","7_8","7_1","8_1",1,1,0,1,"Left_lead","Male","Female","surrender",96
"678","8","6","Female","Female",21,21,"Stim\r07y06g08b05.jpeg","Stim\r11y14g08b23.jpeg",7,11,6,14,8,8,5,23,-2,2,1,0,0,1,1,1.175,1.156,2.862,0,2,"rød","8_6","8_2","6_2",4,1,0,1,"Left_lead","Female","Female","surrender",2
"681","8","6","Female","Female",21,21,"Stim\r14y08g21b39.jpeg","Stim\r15y16g12b03.jpeg",14,15,8,16,21,12,39,3,1,-2,0,1,1,0,1,1.31,0.758,0,2.209,2,"rød","8_6","8_2","6_2",1,0,1,1,"Right_lead","Female","Female","surrender",5
"692","8","6","Female","Female",21,21,"Stim\r10y03g03b07.jpeg","Stim\r17y22g16b15.jpeg",10,17,3,22,3,16,7,15,2,-3,-1,0,1,0,0,1.437,0.999,2.365,0,2,"rød","8_6","8_2","6_2",7,0,1,0,"Left_lead","Female","Female","surrender",16
"697","8","6","Female","Female",21,21,"Stim\r04y16g13b13.jpeg","Stim\r06y36g16b14.jpeg",4,6,16,36,13,16,13,14,1,-2,0,-1,1,0,0,1.144,0.918,0,2.215,2,"rød","8_6","8_2","6_2",2,0,1,0,"Right_lead","Female","Female","stick",21
"700","8","6","Female","Female",21,21,"Stim\r16y21g04b04.jpeg","Stim\r12y07g16b25.jpeg",16,12,21,7,4,16,4,25,1,-4,-1,0,0,1,1,0.949,1.201,3.127,0,2,"rød","8_6","8_2","6_2",-4,0,1,0,"Left_lead","Female","Female","surrender",24
"707","8","6","Female","Female",21,21,"Stim\r03y03g02b05.jpeg","Stim\r15y16g12b03.jpeg",3,15,3,16,2,12,5,3,-1,4,1,0,1,0,0,0.76,1.539,1.83,0,2,"blå","8_6","8_2","6_2",-2,1,0,1,"Left_lead","Female","Female","surrender",31
"723","8","6","Female","Female",21,21,"Stim\r09y17g32b21.jpeg","Stim\r07y14g27b22.jpeg",9,7,17,14,32,27,21,22,2,-3,-1,0,1,0,0,1.413,0.91,1.909,0,2,"blå","8_6","8_2","6_2",1,0,1,0,"Left_lead","Female","Female","surrender",47
"724","8","6","Female","Female",21,21,"Stim\r19y15g35b05.jpeg","Stim\r22y23g20b06.jpeg",19,22,15,23,35,20,5,6,1,-3,-1,0,1,0,0,1.07,0.984,1.365,0,2,"blå","8_6","8_2","6_2",1,0,1,0,"Left_lead","Female","Female","surrender",48
"727","8","6","Female","Female",21,21,"Stim\r11y26g25b38.jpeg","Stim\r01y27g01b01.jpeg",11,1,26,27,25,1,38,1,2,-4,0,-1,1,0,0,1.496,1.239,0,1.17,2,"gul","8_6","8_2","6_2",1,0,1,0,"Right_lead","Female","Female","stick",51
"728","8","6","Female","Female",21,21,"Stim\r03y03g02b05.jpeg","Stim\r03y06g12b09.jpeg",3,3,3,6,2,12,5,9,2,-2,0,1,1,0,1,1.219,1.032,0,0.917,2,"gul","8_6","8_2","6_2",3,0,1,1,"Right_lead","Female","Female","surrender",52
"734","8","6","Female","Female",21,21,"Stim\r10y27g22b14.jpeg","Stim\r04y28g27b06.jpeg",10,4,27,28,22,27,14,6,-2,2,0,-1,0,1,0,1.861,1.422,0,0.863,2,"gul","8_6","8_2","6_2",1,1,0,0,"Right_lead","Female","Female","surrender",58
"736","8","6","Female","Female",21,21,"Stim\r12y07g07b17.jpeg","Stim\r10y13g07b36.jpeg",12,10,7,13,7,7,17,36,2,-4,1,0,1,0,1,0.827,1.241,1.425,0,2,"gul","8_6","8_2","6_2",6,0,1,1,"Left_lead","Female","Female","stick",60
"737","8","6","Female","Female",21,21,"Stim\r08y09g09b11.jpeg","Stim\r08y12g20b03.jpeg",8,8,9,12,9,20,11,3,-2,2,0,-1,0,1,0,1.308,0.925,0,0.862,2,"gul","8_6","8_2","6_2",3,1,0,0,"Right_lead","Female","Female","surrender",61
"739","8","6","Female","Female",21,21,"Stim\r09y17g32b21.jpeg","Stim\r11y14g08b23.jpeg",9,11,17,14,32,8,21,23,1,-4,-1,0,0,1,1,1.675,1.038,1.282,0,2,"gul","8_6","8_2","6_2",-3,0,1,0,"Left_lead","Female","Female","surrender",63
"742","8","6","Female","Female",21,21,"Stim\r10y13g07b36.jpeg","Stim\r12y12g14b26.jpeg",10,12,13,12,7,14,36,26,2,-2,1,0,0,1,0,1.085,0.966,1.223,0,2,"gul","8_6","8_2","6_2",-1,0,1,1,"Left_lead","Female","Female","stick",66
"749","8","6","Female","Female",21,21,"Stim\r05y28g23b30.jpeg","Stim\r11y26g25b38.jpeg",5,11,28,26,23,25,30,38,1,-4,-1,0,1,0,0,1.198,1.456,1.46,0,2,"grøn","8_6","8_2","6_2",2,0,1,0,"Left_lead","Female","Female","surrender",73
"750","8","6","Female","Female",21,21,"Stim\r12y12g14b26.jpeg","Stim\r15y05g12b10.jpeg",12,15,12,5,14,12,26,10,-2,2,0,-1,1,0,1,0.951,1.046,0,1.037,2,"grøn","8_6","8_2","6_2",-2,1,0,0,"Right_lead","Female","Female","surrender",74
"753","8","6","Female","Female",21,21,"Stim\r12y07g16b25.jpeg","Stim\r22y23g20b06.jpeg",12,22,7,23,16,20,25,6,-2,3,0,-1,0,1,0,1.026,1.006,0,0.994,2,"grøn","8_6","8_2","6_2",4,1,0,0,"Right_lead","Female","Female","surrender",77
"758","8","6","Female","Female",21,21,"Stim\r14y20g16b10.jpeg","Stim\r15y05g12b10.jpeg",14,15,20,5,16,12,10,10,-2,2,0,-1,1,0,1,0.813,0.89,0,0.842,2,"grøn","8_6","8_2","6_2",-4,1,0,0,"Right_lead","Female","Female","surrender",82
"762","8","6","Female","Female",21,21,"Stim\r22y35g09b11.jpeg","Stim\r15y16g12b03.jpeg",22,15,35,16,9,12,11,3,2,-4,1,0,1,0,1,0.872,1.498,1.262,0,2,"grøn","8_6","8_2","6_2",3,0,1,1,"Left_lead","Female","Female","stick",86
"765","8","6","Female","Female",21,21,"Stim\r17y11g38b07.jpeg","Stim\r17y20g40b07.jpeg",17,17,11,20,38,40,7,7,-1,3,1,0,0,1,1,1.308,1.139,2.345,0,2,"grøn","8_6","8_2","6_2",2,1,0,1,"Left_lead","Female","Female","surrender",89
"766","8","6","Female","Female",21,21,"Stim\r19y15g35b05.jpeg","Stim\r20y04g39b23.jpeg",19,20,15,4,35,39,5,23,2,-2,-1,0,1,0,0,0.97,1.618,2.095,0,2,"grøn","8_6","8_2","6_2",4,0,1,0,"Left_lead","Female","Female","surrender",90
"769","8","6","Female","Female",21,21,"Stim\r06y14g31b25.jpeg","Stim\r11y13g22b35.jpeg",6,11,14,13,31,22,25,35,2,-3,0,1,0,1,0,0.967,1.13,0,1.051,2,"grøn","8_6","8_2","6_2",-9,0,1,1,"Right_lead","Female","Female","surrender",93
"771","8","6","Female","Female",21,21,"Stim\r17y20g40b07.jpeg","Stim\r17y11g38b07.jpeg",17,17,20,11,40,38,7,7,2,-3,0,1,0,1,0,0.801,1.386,0,0.783,2,"grøn","8_6","8_2","6_2",-2,0,1,1,"Right_lead","Female","Female","surrender",95
"781","9","11","Male","Male",23,23,"Stim\r13y24g05b28.jpeg","Stim\r21y31g06b08.jpeg",13,21,24,31,5,6,28,8,3,-2,1,0,1,0,1,1.64,2.201,2.945,0,1,"rød","9_11","9_1","11_1",8,0,1,1,"Left_lead","Male","Male","stick",9
"782","9","11","Male","Male",23,23,"Stim\r01y27g01b01.jpeg","Stim\r04y39g24b15.jpeg",1,4,27,39,1,24,1,15,-3,2,0,1,0,1,1,9.674,2.235,0,5.264,1,"rød","9_11","9_1","11_1",3,1,0,1,"Right_lead","Male","Male","stick",10
"788","9","11","Male","Male",23,23,"Stim\r14y10g15b15.jpeg","Stim\r15y05g12b10.jpeg",14,15,10,5,15,12,15,10,4,-4,1,0,1,0,1,1.404,2.117,2.386,0,1,"rød","9_11","9_1","11_1",1,0,1,1,"Left_lead","Male","Male","stick",16
"789","9","11","Male","Male",23,23,"Stim\r02y19g24b04.jpeg","Stim\r04y39g24b15.jpeg",2,4,19,39,24,24,4,15,-4,3,0,1,0,1,1,2.177,1.789,0,1.975,1,"rød","9_11","9_1","11_1",2,1,0,1,"Right_lead","Male","Male","stick",17
"792","9","11","Male","Male",23,23,"Stim\r21y31g06b08.jpeg","Stim\r17y11g38b07.jpeg",21,17,31,11,6,38,8,7,-4,4,0,1,1,0,0,1.773,1.369,0,1.548,1,"rød","9_11","9_1","11_1",-4,1,0,1,"Right_lead","Male","Male","stick",20
"794","9","11","Male","Male",23,23,"Stim\r05y40g33b16.jpeg","Stim\r08y23g10b29.jpeg",5,8,40,23,33,10,16,29,4,-2,1,0,1,0,1,3.141,2.354,3.796,0,1,"rød","9_11","9_1","11_1",3,0,1,1,"Left_lead","Male","Male","stick",22
"796","9","11","Male","Male",23,23,"Stim\r10y37g07b02.jpeg","Stim\r06y14g31b25.jpeg",10,6,37,14,7,31,2,25,4,-3,0,-1,0,1,1,1.145,1.457,0,1.214,1,"rød","9_11","9_1","11_1",-4,0,1,0,"Right_lead","Male","Male","stick",24
"797","9","11","Male","Male",23,23,"Stim\r06y14g31b25.jpeg","Stim\r09y06g26b32.jpeg",6,9,14,6,31,26,25,32,4,-3,1,0,1,0,1,1.843,1.339,1.916,0,1,"rød","9_11","9_1","11_1",3,0,1,1,"Left_lead","Male","Male","stick",25
"801","9","11","Male","Male",23,23,"Stim\r12y09g30b18.jpeg","Stim\r10y27g22b14.jpeg",12,10,9,27,30,22,18,14,4,-3,-1,0,0,1,1,1.819,2.099,2.679,0,1,"blå","9_11","9_1","11_1",-4,0,1,0,"Left_lead","Male","Male","surrender",29
"802","9","11","Male","Male",23,23,"Stim\r10y02g36b05.jpeg","Stim\r04y28g27b06.jpeg",10,4,2,28,36,27,5,6,4,-2,0,1,1,0,1,1.906,1.769,0,2.152,1,"blå","9_11","9_1","11_1",1,0,1,1,"Right_lead","Male","Male","surrender",30
"804","9","11","Male","Male",23,23,"Stim\r04y16g13b13.jpeg","Stim\r15y05g12b10.jpeg",4,15,16,5,13,12,13,10,-3,3,0,1,1,0,0,1.365,1.578,0,1.263,1,"blå","9_11","9_1","11_1",-3,1,0,1,"Right_lead","Male","Male","stick",32
"805","9","11","Male","Male",23,23,"Stim\r06y14g31b25.jpeg","Stim\r13y24g05b28.jpeg",6,13,14,24,31,5,25,28,3,-2,0,-1,1,0,0,1.691,1.571,0,1.912,1,"blå","9_11","9_1","11_1",3,0,1,0,"Right_lead","Male","Male","stick",33
"806","9","11","Male","Male",23,23,"Stim\r17y20g40b07.jpeg","Stim\r09y07g06b09.jpeg",17,9,20,7,40,6,7,9,4,-2,1,0,1,0,1,1.297,2.01,1.113,0,1,"blå","9_11","9_1","11_1",2,0,1,1,"Left_lead","Male","Male","stick",34
"809","9","11","Male","Male",23,23,"Stim\r16y21g04b04.jpeg","Stim\r17y11g38b07.jpeg",16,17,21,11,4,38,4,7,4,-3,0,-1,1,0,0,1.118,1.399,0,1.181,1,"blå","9_11","9_1","11_1",3,0,1,0,"Right_lead","Male","Male","stick",37
"811","9","11","Male","Male",23,23,"Stim\r22y35g09b11.jpeg","Stim\r09y07g06b09.jpeg",22,9,35,7,9,6,11,9,-2,1,0,-1,1,0,1,3.815,2.556,0,3.192,1,"blå","9_11","9_1","11_1",-2,1,0,0,"Right_lead","Male","Male","surrender",39
"815","9","11","Male","Male",23,23,"Stim\r11y14g08b23.jpeg","Stim\r09y17g32b21.jpeg",11,9,14,17,8,32,23,21,2,-2,0,-1,0,1,1,2.535,2.581,0,1.68,1,"blå","9_11","9_1","11_1",-2,0,1,0,"Right_lead","Male","Male","stick",43
"817","9","11","Male","Male",23,23,"Stim\r21y24g16b04.jpeg","Stim\r21y31g06b08.jpeg",21,21,24,31,16,6,4,8,4,-1,0,-1,1,0,0,1.799,1.78,0,1.811,1,"blå","9_11","9_1","11_1",4,0,1,0,"Right_lead","Male","Male","stick",45
"821","9","11","Male","Male",23,23,"Stim\r08y09g09b11.jpeg","Stim\r03y06g12b09.jpeg",8,3,9,6,9,12,11,9,3,-2,1,0,0,1,0,0.99,1.035,1.346,0,1,"blå","9_11","9_1","11_1",-2,0,1,1,"Left_lead","Male","Male","stick",49
"826","9","11","Male","Male",23,23,"Stim\r15y16g12b03.jpeg","Stim\r02y19g24b04.jpeg",15,2,16,19,12,24,3,4,-3,4,-1,0,0,1,0,1.417,1.231,1.41,0,1,"gul","9_11","9_1","11_1",3,1,0,0,"Left_lead","Male","Male","stick",54
"829","9","11","Male","Male",23,23,"Stim\r15y17g24b30.jpeg","Stim\r19y15g35b05.jpeg",15,19,17,15,24,35,30,5,-4,4,0,1,1,0,0,1.936,2.086,0,1.501,1,"gul","9_11","9_1","11_1",-2,1,0,1,"Right_lead","Male","Male","stick",57
"830","9","11","Male","Male",23,23,"Stim\r11y26g25b38.jpeg","Stim\r05y28g23b30.jpeg",11,5,26,28,25,23,38,30,-3,4,1,0,0,1,1,1.851,1.447,2.295,0,1,"gul","9_11","9_1","11_1",2,1,0,1,"Left_lead","Male","Male","surrender",58
"831","9","11","Male","Male",23,23,"Stim\r09y15g18b07.jpeg","Stim\r08y12g20b03.jpeg",9,8,15,12,18,20,7,3,-4,2,-1,0,1,0,1,1.379,1.791,1.562,0,1,"gul","9_11","9_1","11_1",-3,1,0,0,"Left_lead","Male","Male","stick",59
"832","9","11","Male","Male",23,23,"Stim\r19y15g35b05.jpeg","Stim\r12y12g14b26.jpeg",19,12,15,12,35,14,5,26,-2,4,0,1,1,0,0,1.64,1.753,0,1.411,1,"gul","9_11","9_1","11_1",-3,1,0,1,"Right_lead","Male","Male","stick",60
"834","9","11","Male","Male",23,23,"Stim\r21y31g06b08.jpeg","Stim\r01y27g01b01.jpeg",21,1,31,27,6,1,8,1,-4,4,-1,0,1,0,1,2.077,1.555,2.793,0,1,"gul","9_11","9_1","11_1",-4,1,0,0,"Left_lead","Male","Male","stick",62
"835","9","11","Male","Male",23,23,"Stim\r22y23g20b06.jpeg","Stim\r21y24g16b04.jpeg",22,21,23,24,20,16,6,4,-3,2,-1,0,0,1,0,1.632,2.08,1.272,0,1,"gul","9_11","9_1","11_1",1,1,0,0,"Left_lead","Male","Male","stick",63
"838","9","11","Male","Male",23,23,"Stim\r02y19g24b04.jpeg","Stim\r19y15g35b05.jpeg",2,19,19,15,24,35,4,5,-3,4,0,1,1,0,0,1.051,1.48,0,2.158,1,"gul","9_11","9_1","11_1",-4,1,0,1,"Right_lead","Male","Male","stick",66
"845","9","11","Male","Male",23,23,"Stim\r09y17g32b21.jpeg","Stim\r07y14g27b22.jpeg",9,7,17,14,32,27,21,22,-3,4,0,1,1,0,0,1.619,1.183,0,1.126,1,"gul","9_11","9_1","11_1",-3,1,0,1,"Right_lead","Male","Male","stick",73
"857","9","11","Male","Male",23,23,"Stim\r17y12g19b18.jpeg","Stim\r21y24g16b04.jpeg",17,21,12,24,19,16,18,4,3,-4,0,-1,0,1,1,1.878,1.803,0,1.278,1,"grøn","9_11","9_1","11_1",-3,0,1,0,"Right_lead","Male","Male","stick",85
"859","9","11","Male","Male",23,23,"Stim\r06y14g31b25.jpeg","Stim\r07y14g27b22.jpeg",6,7,14,14,31,27,25,22,4,-4,0,-1,0,1,1,1.958,1.881,0,2.423,1,"grøn","9_11","9_1","11_1",-4,0,1,0,"Right_lead","Male","Male","stick",87
"862","9","11","Male","Male",23,23,"Stim\r06y19g29b08.jpeg","Stim\r05y40g33b16.jpeg",6,5,19,40,29,33,8,16,4,-4,0,-1,1,0,0,1.255,1.683,0,1.174,1,"grøn","9_11","9_1","11_1",4,0,1,0,"Right_lead","Male","Male","stick",90
"865","9","11","Male","Male",23,23,"Stim\r11y14g08b23.jpeg","Stim\r13y24g05b28.jpeg",11,13,14,24,8,5,23,28,-4,4,0,-1,1,0,1,1.275,1.005,0,1.014,1,"grøn","9_11","9_1","11_1",-3,1,0,0,"Right_lead","Male","Male","surrender",93
"877","10","9","Female","Male",26,23,"Stim\r13y33g08b23.jpeg","Stim\r06y14g31b25.jpeg",13,6,33,14,8,31,23,25,2,-3,-1,0,0,1,1,0.977,1.44,2.981,0,2,"rød","10_9","10_2","9_2",-7,0,1,0,"Left_lead","Female","Male","surrender",8
"878","10","9","Female","Male",26,23,"Stim\r14y08g21b39.jpeg","Stim\r13y33g08b23.jpeg",14,13,8,33,21,8,39,23,1,-3,-1,0,0,1,1,2.151,1.424,1.518,0,2,"rød","10_9","10_2","9_2",-1,0,1,0,"Left_lead","Female","Male","surrender",9
"880","10","9","Female","Male",26,23,"Stim\r14y20g16b10.jpeg","Stim\r17y20g40b07.jpeg",14,17,20,20,16,40,10,7,1,-3,0,1,1,0,1,2.211,1.691,0,2.848,2,"rød","10_9","10_2","9_2",3,0,1,1,"Right_lead","Male","Female","surrender",11
"882","10","9","Female","Male",26,23,"Stim\r15y05g12b10.jpeg","Stim\r16y09g06b10.jpeg",15,16,5,9,12,6,10,10,-4,3,0,-1,0,1,0,1.43,1.543,0,2.166,2,"rød","10_9","10_2","9_2",1,1,0,0,"Right_lead","Male","Female","surrender",13
"885","10","9","Female","Male",26,23,"Stim\r06y36g16b14.jpeg","Stim\r07y02g03b06.jpeg",6,7,36,2,16,3,14,6,2,-3,0,-1,1,0,0,0.852,1.298,0,1.948,2,"rød","10_9","10_2","9_2",1,0,1,0,"Right_lead","Male","Female","stick",16
"887","10","9","Female","Male",26,23,"Stim\r03y11g01b26.jpeg","Stim\r05y40g33b16.jpeg",3,5,11,40,1,33,26,16,-2,2,0,-1,0,1,0,1.267,2.13,0,2.364,2,"rød","10_9","10_2","9_2",2,1,0,0,"Right_lead","Male","Female","surrender",18
"888","10","9","Female","Male",26,23,"Stim\r09y07g06b09.jpeg","Stim\r11y26g25b38.jpeg",9,11,7,26,6,25,9,38,-1,3,1,0,0,1,1,1.623,1.057,1.476,0,2,"rød","10_9","10_2","9_2",2,1,0,1,"Left_lead","Female","Male","surrender",19
"890","10","9","Female","Male",26,23,"Stim\r10y37g07b02.jpeg","Stim\r12y07g16b25.jpeg",10,12,37,7,7,16,2,25,3,-2,1,0,1,0,1,1.15,1.596,1.093,0,2,"rød","10_9","10_2","9_2",2,0,1,1,"Left_lead","Female","Male","stick",21
"891","10","9","Female","Male",26,23,"Stim\r13y21g23b09.jpeg","Stim\r10y07g11b10.jpeg",13,10,21,7,23,11,9,10,1,-4,-1,0,0,1,1,1.214,1.178,2.696,0,2,"rød","10_9","10_2","9_2",-3,0,1,0,"Left_lead","Female","Male","surrender",22
"892","10","9","Female","Male",26,23,"Stim\r20y04g39b23.jpeg","Stim\r17y22g16b15.jpeg",20,17,4,22,39,16,23,15,1,-2,0,-1,0,1,1,0.928,1.675,0,1.942,2,"rød","10_9","10_2","9_2",-3,0,1,0,"Right_lead","Male","Female","stick",23
"893","10","9","Female","Male",26,23,"Stim\r20y14g02b19.jpeg","Stim\r19y15g35b05.jpeg",20,19,14,15,2,35,19,5,3,-1,0,1,0,1,0,1.095,1.563,0,1.403,2,"rød","10_9","10_2","9_2",-1,0,1,1,"Right_lead","Male","Female","surrender",24
"898","10","9","Female","Male",26,23,"Stim\r10y07g11b10.jpeg","Stim\r12y09g30b18.jpeg",10,12,7,9,11,30,10,18,2,-3,0,-1,1,0,0,1.428,1.89,0,1.635,2,"blå","10_9","10_2","9_2",8,0,1,0,"Right_lead","Male","Female","stick",29
"901","10","9","Female","Male",26,23,"Stim\r02y10g14b11.jpeg","Stim\r03y03g02b05.jpeg",2,3,10,3,14,2,11,5,2,-3,0,1,0,1,0,0.893,1.543,0,1.724,2,"blå","10_9","10_2","9_2",-6,0,1,1,"Right_lead","Male","Female","surrender",32
"902","10","9","Female","Male",26,23,"Stim\r06y19g29b08.jpeg","Stim\r17y11g38b07.jpeg",6,17,19,11,29,38,8,7,3,-2,1,0,0,1,0,1.108,1.188,1.486,0,2,"blå","10_9","10_2","9_2",-1,0,1,1,"Left_lead","Female","Male","stick",33
"903","10","9","Female","Male",26,23,"Stim\r13y21g23b09.jpeg","Stim\r07y06g08b05.jpeg",13,7,21,6,23,8,9,5,1,-3,-1,0,0,1,1,1.273,1.188,1.421,0,2,"blå","10_9","10_2","9_2",-4,0,1,0,"Left_lead","Female","Male","surrender",34
"906","10","9","Female","Male",26,23,"Stim\r13y33g08b23.jpeg","Stim\r04y39g24b15.jpeg",13,4,33,39,8,24,23,15,1,-3,0,-1,0,1,1,1.064,1.261,0,1.446,2,"blå","10_9","10_2","9_2",-8,0,1,0,"Right_lead","Male","Female","stick",37
"907","10","9","Female","Male",26,23,"Stim\r21y03g15b37.jpeg","Stim\r05y09g02b34.jpeg",21,5,3,9,15,2,37,34,2,-2,0,-1,0,1,1,1.268,2.081,0,1.233,2,"blå","10_9","10_2","9_2",-3,0,1,0,"Right_lead","Male","Female","stick",38
"908","10","9","Female","Male",26,23,"Stim\r15y17g24b30.jpeg","Stim\r09y06g26b32.jpeg",15,9,17,6,24,26,30,32,2,-2,0,1,1,0,1,1.733,6.43,0,1.681,2,"blå","10_9","10_2","9_2",2,0,1,1,"Right_lead","Male","Female","surrender",39
"909","10","9","Female","Male",26,23,"Stim\r20y04g39b23.jpeg","Stim\r21y01g04b27.jpeg",20,21,4,1,39,4,23,27,1,-4,-1,0,1,0,0,0.524,1.49,1.512,0,2,"blå","10_9","10_2","9_2",4,0,1,0,"Left_lead","Female","Male","surrender",40
"911","10","9","Female","Male",26,23,"Stim\r13y24g05b28.jpeg","Stim\r17y07g07b24.jpeg",13,17,24,7,5,7,28,24,3,-3,0,-1,0,1,1,1.118,1.397,0,1.863,2,"blå","10_9","10_2","9_2",-4,0,1,0,"Right_lead","Male","Female","stick",42
"913","10","9","Female","Male",26,23,"Stim\r14y08g21b39.jpeg","Stim\r11y26g25b38.jpeg",14,11,8,26,21,25,39,38,-1,3,1,0,1,0,0,1.883,1.23,1.616,0,2,"blå","10_9","10_2","9_2",-1,1,0,1,"Left_lead","Female","Male","surrender",44
"914","10","9","Female","Male",26,23,"Stim\r17y22g16b15.jpeg","Stim\r17y12g19b18.jpeg",17,17,22,12,16,19,15,18,3,-3,1,0,1,0,1,1.002,1.131,1.623,0,2,"blå","10_9","10_2","9_2",3,0,1,1,"Left_lead","Female","Male","stick",45
"917","10","9","Female","Male",26,23,"Stim\r06y14g31b25.jpeg","Stim\r14y12g04b29.jpeg",6,14,14,12,31,4,25,29,2,-4,-1,0,1,0,0,2.763,1.227,1.6,0,2,"blå","10_9","10_2","9_2",4,0,1,0,"Left_lead","Female","Male","surrender",48
"921","10","9","Female","Male",26,23,"Stim\r22y35g09b11.jpeg","Stim\r04y39g24b15.jpeg",22,4,35,39,9,24,11,15,3,-3,0,1,1,0,1,1.128,1.308,0,1.377,2,"gul","10_9","10_2","9_2",4,0,1,1,"Right_lead","Male","Female","surrender",52
"924","10","9","Female","Male",26,23,"Stim\r12y09g30b18.jpeg","Stim\r09y07g06b09.jpeg",12,9,9,7,30,6,18,9,2,-3,0,-1,0,1,1,1.148,1.311,0,1.476,2,"gul","10_9","10_2","9_2",-2,0,1,0,"Right_lead","Male","Female","stick",55
"928","10","9","Female","Male",26,23,"Stim\r12y07g07b17.jpeg","Stim\r17y11g38b07.jpeg",12,17,7,11,7,38,17,7,3,-4,0,-1,1,0,0,1.081,1.744,0,1.932,2,"gul","10_9","10_2","9_2",4,0,1,0,"Right_lead","Male","Female","stick",59
"931","10","9","Female","Male",26,23,"Stim\r13y33g08b23.jpeg","Stim\r06y36g16b14.jpeg",13,6,33,36,8,16,23,14,2,-3,-1,0,1,0,0,1.914,5.08,4.147,0,2,"gul","10_9","10_2","9_2",3,0,1,0,"Left_lead","Female","Male","surrender",62
"933","10","9","Female","Male",26,23,"Stim\r17y22g16b15.jpeg","Stim\r13y24g05b28.jpeg",17,13,22,24,16,5,15,28,-3,4,0,1,0,1,1,1.264,1.077,0,1.111,2,"gul","10_9","10_2","9_2",2,1,0,1,"Right_lead","Male","Female","stick",64
"934","10","9","Female","Male",26,23,"Stim\r12y12g14b26.jpeg","Stim\r17y11g38b07.jpeg",12,17,12,11,14,38,26,7,1,-4,0,-1,0,1,1,1.435,1.333,0,1.054,2,"gul","10_9","10_2","9_2",-1,0,1,0,"Right_lead","Male","Female","stick",65
"935","10","9","Female","Male",26,23,"Stim\r13y21g23b09.jpeg","Stim\r13y24g05b28.jpeg",13,13,21,24,23,5,9,28,-1,2,1,0,0,1,1,2.051,2.131,1.236,0,2,"gul","10_9","10_2","9_2",3,1,0,1,"Left_lead","Female","Male","surrender",66
"936","10","9","Female","Male",26,23,"Stim\r15y05g12b10.jpeg","Stim\r20y04g39b23.jpeg",15,20,5,4,12,39,10,23,-1,1,0,-1,1,0,1,0.986,2.182,0,5.463,2,"gul","10_9","10_2","9_2",-1,1,0,0,"Right_lead","Male","Female","surrender",67
"942","10","9","Female","Male",26,23,"Stim\r02y10g14b11.jpeg","Stim\r06y36g16b14.jpeg",2,6,10,36,14,16,11,14,-2,3,1,0,0,1,1,1.805,2.601,1.44,0,2,"grøn","10_9","10_2","9_2",2,1,0,1,"Left_lead","Female","Male","surrender",73
"945","10","9","Female","Male",26,23,"Stim\r22y35g09b11.jpeg","Stim\r12y07g07b17.jpeg",22,12,35,7,9,7,11,17,-1,4,1,0,1,0,0,1.215,1.078,1.429,0,2,"grøn","10_9","10_2","9_2",-2,1,0,1,"Left_lead","Female","Male","surrender",76
"952","10","9","Female","Male",26,23,"Stim\r07y14g27b22.jpeg","Stim\r05y28g23b30.jpeg",7,5,14,28,27,23,22,30,-1,4,0,1,1,0,0,2.128,1.125,0,1.309,2,"grøn","10_9","10_2","9_2",-4,1,0,1,"Right_lead","Male","Female","stick",83
"954","10","9","Female","Male",26,23,"Stim\r04y28g27b06.jpeg","Stim\r11y26g25b38.jpeg",4,11,28,26,27,25,6,38,-3,4,1,0,1,0,0,1.254,1.267,3.465,0,2,"grøn","10_9","10_2","9_2",-2,1,0,1,"Left_lead","Female","Male","surrender",85
"957","10","9","Female","Male",26,23,"Stim\r09y07g06b09.jpeg","Stim\r05y09g02b34.jpeg",9,5,7,9,6,2,9,34,-1,4,1,0,1,0,0,0.979,1.555,1.24,0,2,"grøn","10_9","10_2","9_2",-4,1,0,1,"Left_lead","Female","Male","surrender",88
"960","10","9","Female","Male",26,23,"Stim\r04y16g13b13.jpeg","Stim\r21y24g16b04.jpeg",4,21,16,24,13,16,13,4,1,-2,-1,0,1,0,0,0.96,2.188,2.648,0,2,"grøn","10_9","10_2","9_2",3,0,1,0,"Left_lead","Female","Male","surrender",91
"962","10","9","Female","Male",26,23,"Stim\r12y07g07b17.jpeg","Stim\r08y23g10b29.jpeg",12,8,7,23,7,10,17,29,-1,3,0,1,0,1,1,1.748,1.075,0,1.565,2,"grøn","10_9","10_2","9_2",3,1,0,1,"Right_lead","Male","Female","stick",93
"963","10","9","Female","Male",26,23,"Stim\r13y21g23b09.jpeg","Stim\r08y12g20b03.jpeg",13,8,21,12,23,20,9,3,2,-2,1,0,0,1,0,1.023,1.135,1.238,0,2,"grøn","10_9","10_2","9_2",-3,0,1,1,"Left_lead","Female","Male","stick",94
"965","10","9","Female","Male",26,23,"Stim\r10y07g11b10.jpeg","Stim\r08y12g20b03.jpeg",10,8,7,12,11,20,10,3,3,-2,-1,0,1,0,0,1.18,1.177,1.373,0,2,"grøn","10_9","10_2","9_2",9,0,1,0,"Left_lead","Female","Male","surrender",96
"966","10","12","Female","Female",26,24,"Stim\r10y02g36b05.jpeg","Stim\r09y07g06b09.jpeg",10,9,2,7,36,6,5,9,2,-1,0,1,0,1,0,5.521,9.827,0,13.074,1,"rød","10_12","10_1","12_1",-1,0,1,1,"Right_lead","Female","Female","surrender",1
"970","10","12","Female","Female",26,24,"Stim\r12y07g16b25.jpeg","Stim\r09y02g05b02.jpeg",12,9,7,2,16,5,25,2,3,-2,0,1,0,1,0,1.628,1.942,0,9.918,1,"rød","10_12","10_1","12_1",-3,0,1,1,"Right_lead","Female","Female","surrender",5
"972","10","12","Female","Female",26,24,"Stim\r22y23g20b06.jpeg","Stim\r16y21g04b04.jpeg",22,16,23,21,20,4,6,4,3,-3,0,-1,0,1,1,2.329,1.93,0,3.411,1,"rød","10_12","10_1","12_1",-6,0,1,0,"Right_lead","Female","Female","stick",7
"975","10","12","Female","Female",26,24,"Stim\r09y17g32b21.jpeg","Stim\r10y37g07b02.jpeg",9,10,17,37,32,7,21,2,2,-3,-1,0,1,0,0,4.776,1.99,13.944,0,1,"rød","10_12","10_1","12_1",1,0,1,0,"Left_lead","Female","Female","surrender",10
"979","10","12","Female","Female",26,24,"Stim\r12y07g07b17.jpeg","Stim\r08y23g10b29.jpeg",12,8,7,23,7,10,17,29,2,-2,1,0,0,1,0,1.295,2.473,3.564,0,1,"rød","10_12","10_1","12_1",-4,0,1,1,"Left_lead","Female","Female","stick",14
"980","10","12","Female","Female",26,24,"Stim\r22y35g09b11.jpeg","Stim\r21y03g15b37.jpeg",22,21,35,3,9,15,11,37,2,-4,-1,0,0,1,1,1.439,1.437,2.497,0,1,"rød","10_12","10_1","12_1",-1,0,1,0,"Left_lead","Female","Female","surrender",15
"984","10","12","Female","Female",26,24,"Stim\r06y19g29b08.jpeg","Stim\r05y09g02b34.jpeg",6,5,19,9,29,2,8,34,1,-2,0,-1,0,1,1,1.589,2.853,0,6.282,1,"rød","10_12","10_1","12_1",-1,0,1,0,"Right_lead","Female","Female","stick",19
"990","10","12","Female","Female",26,24,"Stim\r08y12g20b03.jpeg","Stim\r07y02g03b06.jpeg",8,7,12,2,20,3,3,6,2,-3,0,-1,0,1,1,2.541,1.121,0,3.913,1,"rød","10_12","10_1","12_1",-1,0,1,0,"Right_lead","Female","Female","stick",25
"995","10","12","Female","Female",26,24,"Stim\r16y09g06b10.jpeg","Stim\r18y13g28b06.jpeg",16,18,9,13,6,28,10,6,2,-2,0,1,0,1,0,1.309,2.74,0,5.699,1,"blå","10_12","10_1","12_1",-4,0,1,1,"Right_lead","Female","Female","surrender",30
"996","10","12","Female","Female",26,24,"Stim\r17y20g40b07.jpeg","Stim\r21y24g16b04.jpeg",17,21,20,24,40,16,7,4,1,-2,-1,0,0,1,1,2.064,1.812,3.281,0,1,"blå","10_12","10_1","12_1",-3,0,1,0,"Left_lead","Female","Female","surrender",31
"998","10","12","Female","Female",26,24,"Stim\r04y16g13b13.jpeg","Stim\r14y10g15b15.jpeg",4,14,16,10,13,15,13,15,4,-2,1,0,1,0,1,1.515,2.71,1.391,0,1,"blå","10_12","10_1","12_1",2,0,1,1,"Left_lead","Female","Female","stick",33
"1001","10","12","Female","Female",26,24,"Stim\r21y24g16b04.jpeg","Stim\r09y02g05b02.jpeg",21,9,24,2,16,5,4,2,4,-1,1,0,0,1,0,1.376,2.016,1.298,0,1,"blå","10_12","10_1","12_1",-2,0,1,1,"Left_lead","Female","Female","stick",36
"1005","10","12","Female","Female",26,24,"Stim\r19y15g35b05.jpeg","Stim\r08y12g20b03.jpeg",19,8,15,12,35,20,5,3,1,-1,-1,0,0,1,1,5.523,1.879,1.709,0,1,"blå","10_12","10_1","12_1",-2,0,1,0,"Left_lead","Female","Female","surrender",40
"1007","10","12","Female","Female",26,24,"Stim\r04y28g27b06.jpeg","Stim\r10y03g03b07.jpeg",4,10,28,3,27,3,6,7,4,-1,1,0,1,0,1,1.446,1.895,3.406,0,1,"blå","10_12","10_1","12_1",1,0,1,1,"Left_lead","Female","Female","stick",42
"1010","10","12","Female","Female",26,24,"Stim\r08y23g10b29.jpeg","Stim\r07y14g27b22.jpeg",8,7,23,14,10,27,29,22,3,-2,-1,0,0,1,1,1.161,1.125,2.392,0,1,"blå","10_12","10_1","12_1",-7,0,1,0,"Left_lead","Female","Female","surrender",45
"1014","10","12","Female","Female",26,24,"Stim\r10y13g07b36.jpeg","Stim\r09y06g26b32.jpeg",10,9,13,6,7,26,36,32,4,-4,0,1,0,1,0,1.684,1.548,0,11.35,1,"blå","10_12","10_1","12_1",-4,0,1,1,"Right_lead","Female","Female","surrender",49
"1022","10","12","Female","Female",26,24,"Stim\r08y23g10b29.jpeg","Stim\r10y27g22b14.jpeg",8,10,23,27,10,22,29,14,3,-1,0,1,1,0,1,1.274,1.671,0,3.096,1,"gul","10_12","10_1","12_1",4,0,1,1,"Right_lead","Female","Female","surrender",57
"1027","10","12","Female","Female",26,24,"Stim\r14y12g04b29.jpeg","Stim\r18y13g28b06.jpeg",14,18,12,13,4,28,29,6,-2,3,0,1,0,1,1,0.982,1.48,0,4.282,1,"gul","10_12","10_1","12_1",1,1,0,1,"Right_lead","Female","Female","stick",62
"1029","10","12","Female","Female",26,24,"Stim\r03y06g12b09.jpeg","Stim\r10y03g03b07.jpeg",3,10,6,3,12,3,9,7,2,-2,-1,0,0,1,1,0.854,1.219,1.471,0,1,"gul","10_12","10_1","12_1",-3,0,1,0,"Left_lead","Female","Female","surrender",64
"1032","10","12","Female","Female",26,24,"Stim\r06y19g29b08.jpeg","Stim\r14y20g16b10.jpeg",6,14,19,20,29,16,8,10,-1,2,1,0,0,1,1,1.934,0.847,2.474,0,1,"gul","10_12","10_1","12_1",1,1,0,1,"Left_lead","Female","Female","surrender",67
"1038","10","12","Female","Female",26,24,"Stim\r22y02g34b05.jpeg","Stim\r10y03g03b07.jpeg",22,10,2,3,34,3,5,7,3,-1,1,0,1,0,1,1.066,1.178,0.983,0,1,"gul","10_12","10_1","12_1",1,0,1,1,"Left_lead","Female","Female","stick",73
"1045","10","12","Female","Female",26,24,"Stim\r11y26g25b38.jpeg","Stim\r11y13g22b35.jpeg",11,11,26,13,25,22,38,35,-2,2,1,0,1,0,0,0.873,1.521,2.12,0,1,"grøn","10_12","10_1","12_1",-3,1,0,1,"Left_lead","Female","Female","surrender",80
"1049","10","12","Female","Female",26,24,"Stim\r04y16g13b13.jpeg","Stim\r08y23g10b29.jpeg",4,8,16,23,13,10,13,29,3,-2,0,1,0,1,0,1.109,1.205,0,2.13,1,"grøn","10_12","10_1","12_1",-3,0,1,1,"Right_lead","Female","Female","surrender",84
"1050","10","12","Female","Female",26,24,"Stim\r21y24g16b04.jpeg","Stim\r15y16g12b03.jpeg",21,15,24,16,16,12,4,3,-1,1,1,0,1,0,0,0.991,1.406,1.275,0,1,"grøn","10_12","10_1","12_1",-4,1,0,1,"Left_lead","Female","Female","surrender",85
"1057","10","12","Female","Female",26,24,"Stim\r13y33g08b23.jpeg","Stim\r17y07g07b24.jpeg",13,17,33,7,8,7,23,24,1,-2,0,-1,0,1,1,1.288,0.969,0,2.683,1,"grøn","10_12","10_1","12_1",-1,0,1,0,"Right_lead","Female","Female","stick",92
"1058","10","12","Female","Female",26,24,"Stim\r14y08g21b39.jpeg","Stim\r03y06g12b09.jpeg",14,3,8,6,21,12,39,9,-1,1,1,0,1,0,0,0.926,1.57,5.309,0,1,"grøn","10_12","10_1","12_1",-9,1,0,1,"Left_lead","Female","Female","surrender",93
"1059","10","12","Female","Female",26,24,"Stim\r09y02g05b02.jpeg","Stim\r03y11g01b26.jpeg",9,3,2,11,5,1,2,26,-1,1,0,-1,1,0,1,1.94,1.087,0,3.98,1,"grøn","10_12","10_1","12_1",-4,1,0,0,"Right_lead","Female","Female","surrender",94
"1060","10","12","Female","Female",26,24,"Stim\r10y13g07b36.jpeg","Stim\r16y21g04b04.jpeg",10,16,13,21,7,4,36,4,-1,1,1,0,1,0,0,1.031,1.844,1.856,0,1,"grøn","10_12","10_1","12_1",-3,1,0,1,"Left_lead","Female","Female","surrender",95
"1064","12","11","Female","Male",24,23,"Stim\r14y08g21b39.jpeg","Stim\r18y13g28b06.jpeg",14,18,8,13,21,28,39,6,2,-3,-1,0,1,0,0,1.07,1.5,4.155,0,2,"rød","12_11","12_2","11_2",4,0,1,0,"Left_lead","Female","Male","surrender",2
"1065","12","11","Female","Male",24,23,"Stim\r11y10g06b19.jpeg","Stim\r09y06g26b32.jpeg",11,9,10,6,6,26,19,32,1,-4,1,0,0,1,0,1.874,2.336,5.858,0,2,"rød","12_11","12_2","11_2",-2,0,1,1,"Left_lead","Female","Male","stick",3
"1070","12","11","Female","Male",24,23,"Stim\r09y17g32b21.jpeg","Stim\r13y33g08b23.jpeg",9,13,17,33,32,8,21,23,1,-4,-1,0,1,0,0,2.503,1.666,2.395,0,2,"rød","12_11","12_2","11_2",4,0,1,0,"Left_lead","Female","Male","surrender",8
"1073","12","11","Female","Male",24,23,"Stim\r21y01g04b27.jpeg","Stim\r18y13g28b06.jpeg",21,18,1,13,4,28,27,6,1,-4,-1,0,0,1,1,1.925,1.271,1.975,0,2,"rød","12_11","12_2","11_2",-3,0,1,0,"Left_lead","Female","Male","surrender",11
"1076","12","11","Female","Male",24,23,"Stim\r10y07g11b10.jpeg","Stim\r14y10g15b15.jpeg",10,14,7,10,11,15,10,15,-1,4,0,1,0,1,1,1.088,1.318,0,1.437,2,"rød","12_11","12_2","11_2",4,1,0,1,"Right_lead","Male","Female","stick",14
"1080","12","11","Female","Male",24,23,"Stim\r14y12g04b29.jpeg","Stim\r17y20g40b07.jpeg",14,17,12,20,4,40,29,7,1,-4,-1,0,1,0,0,1.894,1.24,1.566,0,2,"rød","12_11","12_2","11_2",3,0,1,0,"Left_lead","Female","Male","surrender",18
"1083","12","11","Female","Male",24,23,"Stim\r17y22g16b15.jpeg","Stim\r13y21g23b09.jpeg",17,13,22,21,16,23,15,9,1,-4,-1,0,0,1,1,1.435,2.547,1.53,0,2,"rød","12_11","12_2","11_2",-4,0,1,0,"Left_lead","Female","Male","surrender",21
"1085","12","11","Female","Male",24,23,"Stim\r06y19g29b08.jpeg","Stim\r05y28g23b30.jpeg",6,5,19,28,29,23,8,30,2,-4,0,-1,0,1,1,1.099,1.56,0,2.498,2,"rød","12_11","12_2","11_2",-1,0,1,0,"Right_lead","Male","Female","stick",23
"1089","12","11","Female","Male",24,23,"Stim\r20y14g02b19.jpeg","Stim\r04y39g24b15.jpeg",20,4,14,39,2,24,19,15,4,-4,0,1,0,1,0,1.315,1.229,0,2.282,2,"blå","12_11","12_2","11_2",-4,0,1,1,"Right_lead","Male","Female","surrender",27
"1090","12","11","Female","Male",24,23,"Stim\r10y13g07b36.jpeg","Stim\r15y17g24b30.jpeg",10,15,13,17,7,24,36,30,3,-4,0,-1,0,1,1,1.037,1.233,0,1.405,2,"blå","12_11","12_2","11_2",-6,0,1,0,"Right_lead","Male","Female","stick",28
"1091","12","11","Female","Male",24,23,"Stim\r07y06g08b05.jpeg","Stim\r18y13g28b06.jpeg",7,18,6,13,8,28,5,6,1,-4,-1,0,1,0,0,1.567,2.013,1.963,0,2,"blå","12_11","12_2","11_2",1,0,1,0,"Left_lead","Female","Male","surrender",29
"1092","12","11","Female","Male",24,23,"Stim\r22y23g20b06.jpeg","Stim\r16y21g04b04.jpeg",22,16,23,21,20,4,6,4,1,-3,0,1,0,1,0,1.572,1.701,0,2.231,2,"blå","12_11","12_2","11_2",-2,0,1,1,"Right_lead","Male","Female","surrender",30
"1097","12","11","Female","Male",24,23,"Stim\r11y13g22b35.jpeg","Stim\r21y03g15b37.jpeg",11,21,13,3,22,15,35,37,-1,4,1,0,0,1,1,1.622,1.944,1.614,0,2,"blå","12_11","12_2","11_2",2,1,0,1,"Left_lead","Female","Male","surrender",35
"1099","12","11","Female","Male",24,23,"Stim\r11y10g06b19.jpeg","Stim\r05y40g33b16.jpeg",11,5,10,40,6,33,19,16,1,-4,0,-1,0,1,1,1.444,1.873,0,1.431,2,"blå","12_11","12_2","11_2",-3,0,1,0,"Right_lead","Male","Female","stick",37
"1100","12","11","Female","Male",24,23,"Stim\r17y07g07b24.jpeg","Stim\r12y07g16b25.jpeg",17,12,7,7,7,16,24,25,-2,4,0,1,0,1,1,0.952,1.661,0,1.679,2,"blå","12_11","12_2","11_2",1,1,0,1,"Right_lead","Male","Female","stick",38
"1103","12","11","Female","Male",24,23,"Stim\r17y11g38b07.jpeg","Stim\r10y02g36b05.jpeg",17,10,11,2,38,36,7,5,1,-4,0,-1,0,1,1,0.999,2.861,0,1.161,2,"blå","12_11","12_2","11_2",-2,0,1,0,"Right_lead","Male","Female","stick",41
"1109","12","11","Female","Male",24,23,"Stim\r06y14g31b25.jpeg","Stim\r14y12g04b29.jpeg",6,14,14,12,31,4,25,29,-1,4,0,1,0,1,1,1.719,2.465,0,1.378,2,"blå","12_11","12_2","11_2",4,1,0,1,"Right_lead","Male","Female","stick",47
"1110","12","11","Female","Male",24,23,"Stim\r11y14g08b23.jpeg","Stim\r11y10g06b19.jpeg",11,11,14,10,8,6,23,19,1,-4,0,-1,0,1,1,4.497,1.224,0,1.199,2,"blå","12_11","12_2","11_2",-4,0,1,0,"Right_lead","Male","Female","stick",48
"1111","12","11","Female","Male",24,23,"Stim\r07y02g03b06.jpeg","Stim\r19y10g06b15.jpeg",7,19,2,10,3,6,6,15,4,-4,0,1,1,0,1,1.451,2.096,0,1.16,2,"gul","12_11","12_2","11_2",8,0,1,1,"Right_lead","Male","Female","surrender",49
"1113","12","11","Female","Male",24,23,"Stim\r21y31g06b08.jpeg","Stim\r10y27g22b14.jpeg",21,10,31,27,6,22,8,14,2,-4,0,1,0,1,0,1.241,2.019,0,1.181,2,"gul","12_11","12_2","11_2",-4,0,1,1,"Right_lead","Male","Female","surrender",51
"1119","12","11","Female","Male",24,23,"Stim\r14y10g15b15.jpeg","Stim\r10y07g11b10.jpeg",14,10,10,7,15,11,15,10,-1,4,0,1,1,0,0,1.235,2.097,0,1.147,2,"gul","12_11","12_2","11_2",-3,1,0,1,"Right_lead","Male","Female","stick",57
"1120","12","11","Female","Male",24,23,"Stim\r04y28g27b06.jpeg","Stim\r10y27g22b14.jpeg",4,10,28,27,27,22,6,14,-3,4,1,0,1,0,0,1.434,1.563,2.728,0,2,"gul","12_11","12_2","11_2",-1,1,0,1,"Left_lead","Female","Male","surrender",58
"1134","12","11","Female","Male",24,23,"Stim\r13y24g05b28.jpeg","Stim\r10y27g22b14.jpeg",13,10,24,27,5,22,28,14,-1,4,1,0,0,1,1,0.957,1.136,2.431,0,2,"gul","12_11","12_2","11_2",3,1,0,1,"Left_lead","Female","Male","surrender",72
"1135","12","11","Female","Male",24,23,"Stim\r21y31g06b08.jpeg","Stim\r10y37g07b02.jpeg",21,10,31,37,6,7,8,2,1,-4,0,-1,1,0,0,2.566,2.978,0,1.114,2,"grøn","12_11","12_2","11_2",1,0,1,0,"Right_lead","Male","Female","stick",73
"1136","12","11","Female","Male",24,23,"Stim\r07y06g08b05.jpeg","Stim\r09y02g05b02.jpeg",7,9,6,2,8,5,5,2,-1,4,0,1,1,0,0,0.997,1.948,0,1.955,2,"grøn","12_11","12_2","11_2",-3,1,0,1,"Right_lead","Male","Female","stick",74
"1138","12","11","Female","Male",24,23,"Stim\r20y04g39b23.jpeg","Stim\r17y20g40b07.jpeg",20,17,4,20,39,40,23,7,-2,4,1,0,0,1,1,0.88,3.759,2.295,0,2,"grøn","12_11","12_2","11_2",1,1,0,1,"Left_lead","Female","Male","surrender",76
"1140","12","11","Female","Male",24,23,"Stim\r04y28g27b06.jpeg","Stim\r09y06g26b32.jpeg",4,9,28,6,27,26,6,32,-2,4,1,0,1,0,0,1.783,1.412,1.71,0,2,"grøn","12_11","12_2","11_2",-1,1,0,1,"Left_lead","Female","Male","surrender",78
"1141","12","11","Female","Male",24,23,"Stim\r11y13g22b35.jpeg","Stim\r04y16g13b13.jpeg",11,4,13,16,22,13,35,13,-2,2,0,1,1,0,0,2.57,1.747,0,2.783,2,"grøn","12_11","12_2","11_2",-9,1,0,1,"Right_lead","Male","Female","stick",79
"1145","12","11","Female","Male",24,23,"Stim\r22y35g09b11.jpeg","Stim\r10y37g07b02.jpeg",22,10,35,37,9,7,11,2,-1,2,0,1,1,0,0,1.606,1.859,0,1.401,2,"grøn","12_11","12_2","11_2",-2,1,0,1,"Right_lead","Male","Female","stick",83
"1149","12","11","Female","Male",24,23,"Stim\r18y19g14b27.jpeg","Stim\r04y16g13b13.jpeg",18,4,19,16,14,13,27,13,2,-3,1,0,0,1,0,1.37,1.932,4.438,0,2,"grøn","12_11","12_2","11_2",-1,0,1,1,"Left_lead","Female","Male","stick",87
"1151","12","11","Female","Male",24,23,"Stim\r17y22g16b15.jpeg","Stim\r22y23g20b06.jpeg",17,22,22,23,16,20,15,6,1,-3,0,-1,1,0,0,0.795,1.69,0,1.299,2,"grøn","12_11","12_2","11_2",4,0,1,0,"Right_lead","Male","Female","stick",89
"1157","12","11","Female","Male",24,23,"Stim\r11y26g25b38.jpeg","Stim\r04y39g24b15.jpeg",11,4,26,39,25,24,38,15,-1,4,0,1,1,0,0,1.353,1.633,0,1.094,2,"grøn","12_11","12_2","11_2",-1,1,0,1,"Right_lead","Male","Female","stick",95
"1160","13","14","Male","Female",23,25,"Stim\r14y20g16b10.jpeg","Stim\r16y21g04b04.jpeg",14,16,20,21,16,4,10,4,-2,2,0,-1,0,1,0,4.215,3.494,0,8.333,1,"rød","13_14","13_1","14_1",2,1,0,0,"Right_lead","Female","Male","surrender",2
"1165","13","14","Male","Female",23,25,"Stim\r03y06g12b09.jpeg","Stim\r07y02g03b06.jpeg",3,7,6,2,12,3,9,6,1,-2,-1,0,1,0,0,3.281,2.461,6.032,0,1,"rød","13_14","13_1","14_1",4,0,1,0,"Left_lead","Male","Female","surrender",7
"1176","13","14","Male","Female",23,25,"Stim\r18y13g28b06.jpeg","Stim\r12y07g16b25.jpeg",18,12,13,7,28,16,6,25,2,-2,1,0,0,1,0,2.298,1.469,2.879,0,1,"rød","13_14","13_1","14_1",-6,0,1,1,"Left_lead","Male","Female","stick",18
"1177","13","14","Male","Female",23,25,"Stim\r10y07g11b10.jpeg","Stim\r09y15g18b07.jpeg",10,9,7,15,11,18,10,7,-1,1,1,0,1,0,0,2.529,1.738,8.43,0,1,"rød","13_14","13_1","14_1",-1,1,0,1,"Left_lead","Male","Female","surrender",19
"1181","13","14","Male","Female",23,25,"Stim\r13y21g23b09.jpeg","Stim\r12y07g16b25.jpeg",13,12,21,7,23,16,9,25,3,-3,0,-1,0,1,1,1.763,1.492,0,7.612,1,"rød","13_14","13_1","14_1",-1,0,1,0,"Right_lead","Female","Male","stick",23
"1182","13","14","Male","Female",23,25,"Stim\r10y37g07b02.jpeg","Stim\r13y21g23b09.jpeg",10,13,37,21,7,23,2,9,-1,2,0,1,0,1,1,2.93,2.909,0,6.117,1,"rød","13_14","13_1","14_1",3,1,0,1,"Right_lead","Female","Male","stick",24
"1184","13","14","Male","Female",23,25,"Stim\r04y28g27b06.jpeg","Stim\r10y27g22b14.jpeg",4,10,28,27,27,22,6,14,2,-3,-1,0,1,0,0,1.258,1.754,4.536,0,1,"blå","13_14","13_1","14_1",8,0,1,0,"Left_lead","Male","Female","surrender",26
"1190","13","14","Male","Female",23,25,"Stim\r10y27g22b14.jpeg","Stim\r12y09g30b18.jpeg",10,12,27,9,22,30,14,18,-2,2,0,1,0,1,1,1.989,1.285,0,4.834,1,"blå","13_14","13_1","14_1",4,1,0,1,"Right_lead","Female","Male","stick",32
"1191","13","14","Male","Female",23,25,"Stim\r18y19g14b27.jpeg","Stim\r05y28g23b30.jpeg",18,5,19,28,14,23,27,30,2,-1,-1,0,1,0,0,3.325,2.952,3.016,0,1,"blå","13_14","13_1","14_1",3,0,1,0,"Left_lead","Male","Female","surrender",33
"1195","13","14","Male","Female",23,25,"Stim\r09y07g06b09.jpeg","Stim\r22y35g09b11.jpeg",9,22,7,35,6,9,9,11,-2,2,-1,0,0,1,0,1.871,1.484,2.843,0,1,"blå","13_14","13_1","14_1",2,1,0,0,"Left_lead","Male","Female","stick",37
"1197","13","14","Male","Female",23,25,"Stim\r12y09g30b18.jpeg","Stim\r09y17g32b21.jpeg",12,9,9,17,30,32,18,21,2,-2,1,0,1,0,1,1.171,1.569,3.171,0,1,"blå","13_14","13_1","14_1",3,0,1,1,"Left_lead","Male","Female","stick",39
"1198","13","14","Male","Female",23,25,"Stim\r15y16g12b03.jpeg","Stim\r22y23g20b06.jpeg",15,22,16,23,12,20,3,6,1,-1,0,1,1,0,1,2.078,1.308,0,4.612,1,"blå","13_14","13_1","14_1",3,0,1,1,"Right_lead","Female","Male","surrender",40
"1199","13","14","Male","Female",23,25,"Stim\r17y11g38b07.jpeg","Stim\r06y19g29b08.jpeg",17,6,11,19,38,29,7,8,1,-1,0,1,1,0,1,6.864,1.567,0,4.736,1,"blå","13_14","13_1","14_1",1,0,1,1,"Right_lead","Female","Male","surrender",41
"1200","13","14","Male","Female",23,25,"Stim\r21y01g04b27.jpeg","Stim\r15y17g24b30.jpeg",21,15,1,17,4,24,27,30,1,-2,0,-1,1,0,0,2.188,1.182,0,3.628,1,"blå","13_14","13_1","14_1",3,0,1,0,"Right_lead","Female","Male","stick",42
"1205","13","14","Male","Female",23,25,"Stim\r09y06g26b32.jpeg","Stim\r05y28g23b30.jpeg",9,5,6,28,26,23,32,30,-2,2,0,1,1,0,0,2.39,2.669,0,2.252,1,"blå","13_14","13_1","14_1",-2,1,0,1,"Right_lead","Female","Male","stick",47
"1206","13","14","Male","Female",23,25,"Stim\r11y14g08b23.jpeg","Stim\r12y12g14b26.jpeg",11,12,14,12,8,14,23,26,3,-2,1,0,1,0,1,5.236,1.548,4.186,0,1,"blå","13_14","13_1","14_1",3,0,1,1,"Left_lead","Male","Female","stick",48
"1207","13","14","Male","Female",23,25,"Stim\r03y06g12b09.jpeg","Stim\r22y35g09b11.jpeg",3,22,6,35,12,9,9,11,2,-1,0,1,1,0,1,2.471,1.399,0,2.227,1,"blå","13_14","13_1","14_1",2,0,1,1,"Right_lead","Female","Male","surrender",49
"1209","13","14","Male","Female",23,25,"Stim\r12y07g16b25.jpeg","Stim\r03y06g12b09.jpeg",12,3,7,6,16,12,25,9,3,-2,0,-1,0,1,1,2.664,1.509,0,2.332,1,"gul","13_14","13_1","14_1",-1,0,1,0,"Right_lead","Female","Male","stick",51
"1211","13","14","Male","Female",23,25,"Stim\r18y19g14b27.jpeg","Stim\r08y23g10b29.jpeg",18,8,19,23,14,10,27,29,-1,2,1,0,0,1,1,1.731,2.31,1.489,0,1,"gul","13_14","13_1","14_1",4,1,0,1,"Left_lead","Male","Female","surrender",53
"1214","13","14","Male","Female",23,25,"Stim\r16y09g06b10.jpeg","Stim\r09y07g06b09.jpeg",16,9,9,7,6,6,10,9,-1,2,0,1,1,0,0,2.831,1.127,0,2.725,1,"gul","13_14","13_1","14_1",-2,1,0,1,"Right_lead","Female","Male","stick",56
"1221","13","14","Male","Female",23,25,"Stim\r13y21g23b09.jpeg","Stim\r18y19g14b27.jpeg",13,18,21,19,23,14,9,27,-4,1,-1,0,1,0,1,1.667,0.863,1.729,0,1,"gul","13_14","13_1","14_1",-2,1,0,0,"Left_lead","Male","Female","stick",63
"1224","13","14","Male","Female",23,25,"Stim\r09y07g06b09.jpeg","Stim\r07y14g27b22.jpeg",9,7,7,14,6,27,9,22,2,-2,-1,0,1,0,0,2.58,1.909,2.195,0,1,"gul","13_14","13_1","14_1",7,0,1,0,"Left_lead","Male","Female","surrender",66
"1225","13","14","Male","Female",23,25,"Stim\r07y14g27b22.jpeg","Stim\r11y13g22b35.jpeg",7,11,14,13,27,22,22,35,-1,1,-1,0,1,0,1,1.127,1.223,1.243,0,1,"gul","13_14","13_1","14_1",-1,1,0,0,"Left_lead","Male","Female","stick",67
"1227","13","14","Male","Female",23,25,"Stim\r17y22g16b15.jpeg","Stim\r14y20g16b10.jpeg",17,14,22,20,16,16,15,10,-3,2,0,-1,1,0,1,1.526,1.006,0,3.112,1,"gul","13_14","13_1","14_1",-2,1,0,0,"Right_lead","Female","Male","surrender",69
"1228","13","14","Male","Female",23,25,"Stim\r21y03g15b37.jpeg","Stim\r03y11g01b26.jpeg",21,3,3,11,15,1,37,26,2,-1,1,0,1,0,1,4.022,1.744,2.412,0,1,"gul","13_14","13_1","14_1",8,0,1,1,"Left_lead","Male","Female","stick",70
"1229","13","14","Male","Female",23,25,"Stim\r11y26g25b38.jpeg","Stim\r05y28g23b30.jpeg",11,5,26,28,25,23,38,30,-2,1,-1,0,0,1,0,1.303,1.943,1.113,0,1,"gul","13_14","13_1","14_1",2,1,0,0,"Left_lead","Male","Female","stick",71
"1233","13","14","Male","Female",23,25,"Stim\r12y12g14b26.jpeg","Stim\r15y16g12b03.jpeg",12,15,12,16,14,12,26,3,-2,1,0,-1,1,0,1,2.029,0.974,0,4.346,1,"grøn","13_14","13_1","14_1",-2,1,0,0,"Right_lead","Female","Male","surrender",75
"1235","13","14","Male","Female",23,25,"Stim\r14y12g04b29.jpeg","Stim\r12y07g07b17.jpeg",14,12,12,7,4,7,29,17,1,-1,0,-1,1,0,0,1.311,1.407,0,3.642,1,"grøn","13_14","13_1","14_1",3,0,1,0,"Right_lead","Female","Male","stick",77
"1247","13","14","Male","Female",23,25,"Stim\r17y22g16b15.jpeg","Stim\r09y15g18b07.jpeg",17,9,22,15,16,18,15,7,2,-2,0,1,1,0,1,2.062,1.306,0,2.071,1,"grøn","13_14","13_1","14_1",2,0,1,1,"Right_lead","Female","Male","surrender",89
"1256","13","15","Male","Male",23,20,"Stim\r08y12g20b03.jpeg","Stim\r10y37g07b02.jpeg",8,10,12,37,20,7,3,2,-1,2,0,1,0,1,1,1.369,5.818,0,2.19,2,"rød","13_15","13_2","15_2",2,1,0,1,"Right_lead","Male","Male","stick",1
"1257","13","15","Male","Male",23,20,"Stim\r11y13g22b35.jpeg","Stim\r09y07g06b09.jpeg",11,9,13,7,22,6,35,9,1,-3,-1,0,0,1,1,2.324,2.1,1.507,0,2,"rød","13_15","13_2","15_2",-2,0,1,0,"Left_lead","Male","Male","surrender",2
"1261","13","15","Male","Male",23,20,"Stim\r15y16g12b03.jpeg","Stim\r18y19g14b27.jpeg",15,18,16,19,12,14,3,27,-3,3,1,0,0,1,1,1.414,1.327,1.397,0,2,"rød","13_15","13_2","15_2",3,1,0,1,"Left_lead","Male","Male","surrender",6
"1263","13","15","Male","Male",23,20,"Stim\r20y04g39b23.jpeg","Stim\r13y24g05b28.jpeg",20,13,4,24,39,5,23,28,-2,3,1,0,1,0,0,2.194,1.223,1.033,0,2,"rød","13_15","13_2","15_2",-7,1,0,1,"Left_lead","Male","Male","surrender",8
"1264","13","15","Male","Male",23,20,"Stim\r03y11g01b26.jpeg","Stim\r01y27g01b01.jpeg",3,1,11,27,1,1,26,1,2,-4,-1,0,0,1,1,1.916,1.762,1.135,0,2,"rød","13_15","13_2","15_2",-2,0,1,0,"Left_lead","Male","Male","surrender",9
"1269","13","15","Male","Male",23,20,"Stim\r18y19g14b27.jpeg","Stim\r10y03g03b07.jpeg",18,10,19,3,14,3,27,7,2,-2,1,0,0,1,0,2.281,2.061,5.082,0,2,"rød","13_15","13_2","15_2",-8,0,1,1,"Left_lead","Male","Male","stick",14
"1273","13","15","Male","Male",23,20,"Stim\r12y12g14b26.jpeg","Stim\r08y12g20b03.jpeg",12,8,12,12,14,20,26,3,-2,3,1,0,1,0,0,2.349,1.345,1.034,0,2,"rød","13_15","13_2","15_2",-4,1,0,1,"Left_lead","Male","Male","surrender",18
"1274","13","15","Male","Male",23,20,"Stim\r17y20g40b07.jpeg","Stim\r16y09g06b10.jpeg",17,16,20,9,40,6,7,10,-2,2,0,-1,1,0,1,1.19,1.602,0,3.355,2,"rød","13_15","13_2","15_2",-1,1,0,0,"Right_lead","Male","Male","surrender",19
"1283","13","15","Male","Male",23,20,"Stim\r20y14g02b19.jpeg","Stim\r14y10g15b15.jpeg",20,14,14,10,2,15,19,15,2,-2,-1,0,0,1,1,1.05,1.207,1.782,0,2,"blå","13_15","13_2","15_2",-4,0,1,0,"Left_lead","Male","Male","surrender",28
"1285","13","15","Male","Male",23,20,"Stim\r17y11g38b07.jpeg","Stim\r10y02g36b05.jpeg",17,10,11,2,38,36,7,5,-3,2,0,-1,1,0,1,1.836,2.132,0,1.224,2,"blå","13_15","13_2","15_2",-2,1,0,0,"Right_lead","Male","Male","surrender",30
"1287","13","15","Male","Male",23,20,"Stim\r10y03g03b07.jpeg","Stim\r03y03g02b05.jpeg",10,3,3,3,3,2,7,5,2,-2,-1,0,0,1,1,1.808,3.471,4.164,0,2,"blå","13_15","13_2","15_2",-2,0,1,0,"Left_lead","Male","Male","surrender",32
"1291","13","15","Male","Male",23,20,"Stim\r22y02g34b05.jpeg","Stim\r10y27g22b14.jpeg",22,10,2,27,34,22,5,14,2,-2,0,1,1,0,1,1.42,2.496,0,1.27,2,"blå","13_15","13_2","15_2",9,0,1,1,"Right_lead","Male","Male","surrender",36
"1294","13","15","Male","Male",23,20,"Stim\r21y01g04b27.jpeg","Stim\r17y07g07b24.jpeg",21,17,1,7,4,7,27,24,-4,2,-1,0,1,0,1,1.68,1.776,1.655,0,2,"blå","13_15","13_2","15_2",-3,1,0,0,"Left_lead","Male","Male","stick",39
"1295","13","15","Male","Male",23,20,"Stim\r02y10g14b11.jpeg","Stim\r20y14g02b19.jpeg",2,20,10,14,14,2,11,19,-4,3,0,1,0,1,1,2.308,1.278,0,1.516,2,"blå","13_15","13_2","15_2",8,1,0,1,"Right_lead","Male","Male","stick",40
"1297","13","15","Male","Male",23,20,"Stim\r01y27g01b01.jpeg","Stim\r09y02g05b02.jpeg",1,9,27,2,1,5,1,2,4,-2,0,1,1,0,1,2.187,1.55,0,0.929,2,"blå","13_15","13_2","15_2",1,0,1,1,"Right_lead","Male","Male","surrender",42
"1298","13","15","Male","Male",23,20,"Stim\r22y23g20b06.jpeg","Stim\r08y12g20b03.jpeg",22,8,23,12,20,20,6,3,1,-1,0,-1,0,1,1,1.314,0.884,0,1.693,2,"blå","13_15","13_2","15_2",-3,0,1,0,"Right_lead","Male","Male","stick",43
"1300","13","15","Male","Male",23,20,"Stim\r12y07g07b17.jpeg","Stim\r13y33g08b23.jpeg",12,13,7,33,7,8,17,23,2,-3,-1,0,1,0,0,1.853,1.368,1.425,0,2,"blå","13_15","13_2","15_2",6,0,1,0,"Left_lead","Male","Male","surrender",45
"1301","13","15","Male","Male",23,20,"Stim\r16y09g06b10.jpeg","Stim\r06y36g16b14.jpeg",16,6,9,36,6,16,10,14,4,-3,1,0,1,0,1,1.529,2.109,1.574,0,2,"blå","13_15","13_2","15_2",4,0,1,1,"Left_lead","Male","Male","stick",46
"1304","13","15","Male","Male",23,20,"Stim\r12y09g30b18.jpeg","Stim\r12y07g07b17.jpeg",12,12,9,7,30,7,18,17,-1,2,1,0,1,0,0,2.475,1.07,1.122,0,2,"gul","13_15","13_2","15_2",-2,1,0,1,"Left_lead","Male","Male","surrender",49
