"","SubjectID_right_unique","Trial_right","SubjectID_left_unique","Trial_left","SubjectID_left","SubjectID_right","Gender_left","Gender_right","Age_left","Age_right","Image_1","Image_2","Prop_red_image_1","Prop_red_image_2","Prop_yellow_image_1","Prop_yellow_image_2","Prop_green_image_1","Prop_green_image_2","Prop_blue_image_1","Prop_blue_image_2","Response_left","Response_right","Joint_left","Joint_right","Correct_left","Correct_right","Correct_joint","RT_left","RT_right","RT_joint_left","RT_joint_right","Round","Block","group_id","diff","response_right_dummy","response_left_dummy","response_joint_dummy","chosen_leader","Leader_gender","Follower_gender","leader_behavior","Sensitivity_roll_left","Sensitivity_roll_right","skill_dif_roll","skill_dif_roll_c","Response_left_abs","Response_right_abs","z_Response_left_abs","z_Response_right_abs","conf_dif","conf_dif_c"
"1","1_1",11,"3_1",11,"3",1,"Male","Male",24,23,"Stim\r11y26g25b38.jpeg","Stim\r15y16g12b03.jpeg",11,15,26,16,25,12,38,3,3,-2,0,-1,1,0,0,2.409,1.473,0,4.129,1,"rød","3_1",4,0,1,0,"Right_lead","Male","Male","stick",0.200692698976875,0.197353700439115,0.983362630754471,-0.0166373692455287,3,2,0.75727357564213,0.316106376724322,0.666666666666667,-0.333333333333333
"2","1_1",12,"3_1",12,"3",1,"Male","Male",24,23,"Stim\r11y14g08b23.jpeg","Stim\r08y23g10b29.jpeg",11,8,14,23,8,10,23,29,-2,1,0,-1,1,0,1,2.381,1.775,0,4.168,1,"rød","3_1",-3,1,0,0,"Right_lead","Male","Male","surrender",0.214460777563092,0.20328643749589,0.947895646960831,-0.0521043530391688,2,1,-0.267273026697222,-1.29954843764443,0.5,-0.5
"3","1_1",13,"3_1",13,"3",1,"Male","Male",24,23,"Stim\r07y02g03b06.jpeg","Stim\r14y12g04b29.jpeg",7,14,2,12,3,4,6,29,-2,2,1,0,0,1,1,1.989,2.701,4.514,0,1,"rød","3_1",7,1,0,1,"Left_lead","Male","Male","surrender",0.208753747126687,0.2081390627555,1.00295323887333,0.0029532388733251,2,2,-0.267273026697222,0.316106376724322,1,0
"4","1_1",15,"3_1",15,"3",1,"Male","Male",24,23,"Stim\r13y33g08b23.jpeg","Stim\r11y13g22b35.jpeg",13,11,33,13,8,22,23,35,2,-1,1,0,0,1,0,1.078,1.825,1.666,0,1,"rød","3_1",-2,0,1,1,"Left_lead","Male","Male","stick",0.231161496453535,0.23956544412608,0.964920033842101,-0.0350799661578992,2,1,-0.267273026697222,-1.29954843764443,2,1
"5","1_1",16,"3_1",16,"3",1,"Male","Male",24,23,"Stim\r07y14g27b22.jpeg","Stim\r09y06g26b32.jpeg",7,9,14,6,27,26,22,32,2,-2,0,-1,1,0,0,1.699,1.592,0,2.427,1,"rød","3_1",2,0,1,0,"Right_lead","Male","Male","stick",0.221282071172015,0.22931945633019,1.03632189953576,0.0363218995357608,2,2,-0.267273026697222,0.316106376724322,1,0
"6","1_1",17,"3_1",17,"3",1,"Male","Male",24,23,"Stim\r08y09g09b11.jpeg","Stim\r09y06g26b32.jpeg",8,9,9,6,9,26,11,32,2,-2,-1,0,1,0,0,1.457,1.707,1.951,0,1,"rød","3_1",1,0,1,0,"Left_lead","Male","Male","surrender",0.22836403679227,0.2423157175157,0.942423542036533,-0.0575764579634669,2,2,-0.267273026697222,0.316106376724322,1,0
"7","1_1",19,"3_1",19,"3",1,"Male","Male",24,23,"Stim\r14y12g04b29.jpeg","Stim\r13y33g08b23.jpeg",14,13,12,33,4,8,29,23,2,-2,-1,0,0,1,1,1.322,1.768,3.525,0,1,"rød","3_1",-1,0,1,0,"Left_lead","Male","Male","surrender",0.239508803189642,0.24079569822725,0.994655656030892,-0.00534434396910821,2,2,-0.267273026697222,0.316106376724322,1,0
"8","1_1",2,"3_1",2,"3",1,"Male","Male",24,23,"Stim\r16y21g04b04.jpeg","Stim\r15y05g12b10.jpeg",16,15,21,5,4,12,4,10,3,-2,1,0,0,1,0,1.888,1.867,6.121,0,1,"rød","3_1",-1,0,1,1,"Left_lead","Male","Male","stick",NA,NA,NA,NA,3,2,0.75727357564213,0.316106376724322,1.5,0.5
"9","1_1",21,"3_1",21,"3",1,"Male","Male",24,23,"Stim\r22y35g09b11.jpeg","Stim\r18y19g14b27.jpeg",22,18,35,19,9,14,11,27,-2,2,0,1,1,0,0,1.011,1.543,0,2.397,1,"rød","3_1",-4,1,0,1,"Right_lead","Male","Male","stick",0.244418203856565,0.245243996217972,1.00337860416441,0.00337860416440838,2,2,-0.267273026697222,0.316106376724322,1,0
"10","1_1",22,"3_1",22,"3",1,"Male","Male",24,23,"Stim\r21y03g15b37.jpeg","Stim\r18y13g28b06.jpeg",21,18,3,13,15,28,37,6,3,-2,1,0,0,1,0,1.607,1.42,1.824,0,1,"rød","3_1",-3,0,1,1,"Left_lead","Male","Male","stick",0.255607633780135,0.25882260750595,0.987578466360435,-0.0124215336395646,3,2,0.75727357564213,0.316106376724322,1.5,0.5
"11","1_1",23,"3_1",23,"3",1,"Male","Male",24,23,"Stim\r18y19g14b27.jpeg","Stim\r19y10g06b15.jpeg",18,19,19,10,14,6,27,15,1,-2,-1,0,1,0,0,1.577,0.94,1.044,0,1,"rød","3_1",1,0,1,0,"Left_lead","Male","Male","surrender",0.256294087042204,0.257325982130524,0.995989930438518,-0.00401006956148153,1,2,-1.29181962903657,0.316106376724322,0.5,-0.5
"12","1_1",24,"3_1",24,"3",1,"Male","Male",24,23,"Stim\r14y08g21b39.jpeg","Stim\r12y12g14b26.jpeg",14,12,8,12,21,14,39,26,2,-2,-1,0,0,1,1,2.765,1.178,1.33,0,1,"rød","3_1",-2,0,1,0,"Left_lead","Male","Male","surrender",0.26312212312285,0.26526615600637,0.991917427704315,-0.00808257229568521,2,2,-0.267273026697222,0.316106376724322,1,0
"13","1_1",25,"3_1",25,"3",1,"Male","Male",24,23,"Stim\r03y03g02b05.jpeg","Stim\r04y28g27b06.jpeg",3,4,3,28,2,27,5,6,4,-2,1,0,1,0,1,1.327,1.206,1.14,0,1,"rød","3_1",1,0,1,1,"Left_lead","Male","Male","stick",0.270069023973785,0.270480681049725,0.998478053684491,-0.00152194631550895,4,2,1.78182017798148,0.316106376724322,2,1
"14","1_1",27,"3_1",27,"3",1,"Male","Male",24,23,"Stim\r12y09g30b18.jpeg","Stim\r20y14g02b19.jpeg",12,20,9,14,30,2,18,19,3,-2,0,1,1,0,1,1.325,1.271,0,1.764,1,"blå","3_1",1,0,1,1,"Right_lead","Male","Male","surrender",0.25137719355876,0.25706007636978,1.02260699441571,0.0226069944157112,3,2,0.75727357564213,0.316106376724322,0.666666666666667,-0.333333333333333
"15","1_1",29,"3_1",29,"3",1,"Male","Male",24,23,"Stim\r12y07g07b17.jpeg","Stim\r09y17g32b21.jpeg",12,9,7,17,7,32,17,21,-2,3,1,0,0,1,1,2.47,3.249,1.474,0,1,"blå","3_1",4,1,0,1,"Left_lead","Male","Male","surrender",0.237488126509546,0.241271422497463,0.984319336501791,-0.0156806634982093,2,3,-0.267273026697222,1.93176119109308,0.666666666666667,-0.333333333333333
"16","1_1",33,"3_1",33,"3",1,"Male","Male",24,23,"Stim\r21y31g06b08.jpeg","Stim\r22y35g09b11.jpeg",21,22,31,35,6,9,8,11,4,-2,1,0,1,0,1,1.193,1.087,1.563,0,1,"blå","3_1",3,0,1,1,"Left_lead","Male","Male","stick",0.21225756581105,0.220823534653106,0.961208985919402,-0.0387910140805978,4,2,1.78182017798148,0.316106376724322,2,1
"17","1_1",34,"3_1",34,"3",1,"Male","Male",24,23,"Stim\r13y33g08b23.jpeg","Stim\r17y22g16b15.jpeg",13,17,33,22,8,16,23,15,-1,2,1,0,1,0,0,2.316,3.728,1.064,0,1,"blå","3_1",-8,1,0,1,"Left_lead","Male","Male","surrender",0.198466091372605,0.20249809041985,0.980088705829841,-0.0199112941701586,1,2,-1.29181962903657,0.316106376724322,0.5,-0.5
"18","1_1",35,"3_1",35,"3",1,"Male","Male",24,23,"Stim\r11y10g06b19.jpeg","Stim\r09y17g32b21.jpeg",11,9,10,17,6,32,19,21,4,-2,1,0,1,0,1,1.103,0.949,1.025,0,1,"blå","3_1",2,0,1,1,"Left_lead","Male","Male","stick",0.158169228723142,0.179374666009675,0.881781314171817,-0.118218685828183,4,2,1.78182017798148,0.316106376724322,2,1
"19","1_1",36,"3_1",36,"3",1,"Male","Male",24,23,"Stim\r10y02g36b05.jpeg","Stim\r21y31g06b08.jpeg",10,21,2,31,36,6,5,8,2,-2,-1,0,1,0,0,1.329,1.975,3.581,0,1,"blå","3_1",3,0,1,0,"Left_lead","Male","Male","surrender",0.150703193753905,0.16261579527056,0.926743884277448,-0.0732561157225522,2,2,-0.267273026697222,0.316106376724322,1,0
"20","1_1",37,"3_1",37,"3",1,"Male","Male",24,23,"Stim\r09y06g26b32.jpeg","Stim\r03y11g01b26.jpeg",9,3,6,11,26,1,32,26,3,-2,1,0,0,1,0,1.549,2.378,1.316,0,1,"blå","3_1",-6,0,1,1,"Left_lead","Male","Male","stick",0.151778576654335,0.163850372843954,0.926324267805507,-0.0736757321944932,3,2,0.75727357564213,0.316106376724322,1.5,0.5
"21","1_1",41,"3_1",41,"3",1,"Male","Male",24,23,"Stim\r09y17g32b21.jpeg","Stim\r20y14g02b19.jpeg",9,20,17,14,32,2,21,19,-3,1,-1,0,1,0,1,1.293,1.823,1.035,0,1,"blå","3_1",-2,1,0,0,"Left_lead","Male","Male","stick",0.153277330668415,0.164096113903138,0.934070448242857,-0.0659295517571431,3,1,0.75727357564213,-1.29954843764443,3,2
"22","1_1",42,"3_1",42,"3",1,"Male","Male",24,23,"Stim\r03y06g12b09.jpeg","Stim\r16y09g06b10.jpeg",3,16,6,9,12,6,9,10,-1,3,0,-1,0,1,0,1.07,1.38,0,5.163,1,"blå","3_1",1,1,0,0,"Right_lead","Male","Male","surrender",0.15392306563511,0.165581566626468,1.07574239080578,0.0757423908057786,1,3,-1.29181962903657,1.93176119109308,3,2
"23","1_1",43,"3_1",43,"3",1,"Male","Male",24,23,"Stim\r10y27g22b14.jpeg","Stim\r22y35g09b11.jpeg",10,22,27,35,22,9,14,11,2,-2,0,-1,0,1,1,1.15,2.212,0,4.827,1,"blå","3_1",-3,0,1,0,"Right_lead","Male","Male","stick",0.150375035201,0.16560341500695,1.10126933493711,0.101269334937111,2,2,-0.267273026697222,0.316106376724322,1,0
"24","1_1",45,"3_1",45,"3",1,"Male","Male",24,23,"Stim\r10y03g03b07.jpeg","Stim\r08y09g09b11.jpeg",10,8,3,9,3,9,7,11,-1,2,0,1,0,1,1,2.094,1.491,0,2.682,1,"blå","3_1",4,1,0,1,"Right_lead","Male","Male","stick",0.1873751321804,0.194553295449985,1.03830904979789,0.0383090497978891,1,2,-1.29181962903657,0.316106376724322,2,1
"25","1_1",46,"3_1",46,"3",1,"Male","Male",24,23,"Stim\r14y08g21b39.jpeg","Stim\r05y28g23b30.jpeg",14,5,8,28,21,23,39,30,2,-3,0,-1,0,1,1,1.401,1.326,0,2.181,1,"blå","3_1",-9,0,1,0,"Right_lead","Male","Male","stick",0.19292837582195,0.19753415910775,1.02387302161322,0.0238730216132157,2,3,-0.267273026697222,1.93176119109308,1.5,0.5
"26","1_1",47,"3_1",47,"3",1,"Male","Male",24,23,"Stim\r12y07g16b25.jpeg","Stim\r14y12g04b29.jpeg",12,14,7,12,16,4,25,29,4,-2,0,1,1,0,1,1.249,3.545,0,1.554,1,"blå","3_1",4,0,1,1,"Right_lead","Male","Male","surrender",0.19111033171535,0.19777484285595,1.03487258423331,0.0348725842333135,4,2,1.78182017798148,0.316106376724322,0.5,-0.5
"27","1_1",49,"3_1",49,"3",1,"Male","Male",24,23,"Stim\r16y09g06b10.jpeg","Stim\r21y31g06b08.jpeg",16,21,9,31,6,6,10,8,1,-2,-1,0,0,1,1,0.987,1.214,1.848,0,1,"blå","3_1",-2,0,1,0,"Left_lead","Male","Male","surrender",0.171413887758902,0.19790909171255,0.866124371930671,-0.133875628069329,1,2,-1.29181962903657,0.316106376724322,0.5,-0.5
"28","1_1",5,"3_1",5,"3",1,"Male","Male",24,23,"Stim\r20y14g02b19.jpeg","Stim\r21y01g04b27.jpeg",20,21,14,1,2,4,19,27,2,-1,0,-1,1,0,0,2.142,1.872,0,7.432,1,"rød","3_1",1,0,1,0,"Right_lead","Male","Male","stick",NA,NA,NA,NA,2,1,-0.267273026697222,-1.29954843764443,0.5,-0.5
"29","1_1",52,"3_1",52,"3",1,"Male","Male",24,23,"Stim\r06y14g31b25.jpeg","Stim\r09y15g18b07.jpeg",6,9,14,15,31,18,25,7,3,-1,1,0,1,0,1,1.654,2.367,1,0,1,"gul","3_1",1,0,1,1,"Left_lead","Male","Male","stick",0.15506090047485,0.205553820289245,0.754356694789988,-0.245643305210012,3,1,0.75727357564213,-1.29954843764443,3,2
"30","1_1",54,"3_1",54,"3",1,"Male","Male",24,23,"Stim\r06y19g29b08.jpeg","Stim\r22y23g20b06.jpeg",6,22,19,23,29,20,8,6,2,-3,-1,0,1,0,0,1.066,1.379,1.032,0,1,"gul","3_1",4,0,1,0,"Left_lead","Male","Male","surrender",0.16752923447463,0.191526919472734,0.874703331186192,-0.125296668813808,2,3,-0.267273026697222,1.93176119109308,0.666666666666667,-0.333333333333333
"31","1_1",59,"3_1",59,"3",1,"Male","Male",24,23,"Stim\r08y23g10b29.jpeg","Stim\r07y14g27b22.jpeg",8,7,23,14,10,27,29,22,2,-1,0,1,0,1,0,1.37,1.299,0,3.06,1,"gul","3_1",-9,0,1,1,"Right_lead","Male","Male","surrender",0.173688051972387,0.186641132683036,1.07457669404173,0.0745766940417312,2,1,-0.267273026697222,-1.29954843764443,0.5,-0.5
"32","1_1",62,"3_1",62,"3",1,"Male","Male",24,23,"Stim\r09y15g18b07.jpeg","Stim\r12y07g07b17.jpeg",9,12,15,7,18,7,7,17,-2,2,0,1,1,0,0,1.208,2.054,0,4.292,1,"gul","3_1",-8,1,0,1,"Right_lead","Male","Male","stick",0.199643771048325,0.21811438908283,1.09251787790581,0.0925178779058129,2,2,-0.267273026697222,0.316106376724322,1,0
"33","1_1",63,"3_1",63,"3",1,"Male","Male",24,23,"Stim\r19y10g06b15.jpeg","Stim\r14y08g21b39.jpeg",19,14,10,8,6,21,15,39,-1,1,0,-1,1,0,1,1.079,1.874,0,3.743,1,"gul","3_1",-2,1,0,0,"Right_lead","Male","Male","surrender",0.219783521858815,0.23286887980187,1.05953748412249,0.0595374841224938,1,1,-1.29181962903657,-1.29954843764443,1,0
"34","1_1",68,"3_1",68,"3",1,"Male","Male",24,23,"Stim\r04y39g24b15.jpeg","Stim\r13y33g08b23.jpeg",4,13,39,33,24,8,15,23,-4,3,-1,0,1,0,1,1.042,1.554,4.111,0,1,"gul","3_1",-6,1,0,0,"Left_lead","Male","Male","stick",0.268476032389222,0.25087255237086,1.07016901551007,0.0701690155100712,4,3,1.78182017798148,1.93176119109308,1.33333333333333,0.333333333333333
"35","1_1",7,"3_1",7,"3",1,"Male","Male",24,23,"Stim\r09y15g18b07.jpeg","Stim\r06y36g16b14.jpeg",9,6,15,36,18,16,7,14,-2,2,0,-1,1,0,1,1.693,2.856,0,4.031,1,"rød","3_1",-3,1,0,0,"Right_lead","Male","Male","surrender",NA,NA,NA,NA,2,2,-0.267273026697222,0.316106376724322,1,0
"36","1_1",71,"3_1",71,"3",1,"Male","Male",24,23,"Stim\r09y02g05b02.jpeg","Stim\r03y06g12b09.jpeg",9,3,2,6,5,12,2,9,-1,1,1,0,0,1,1,1.305,1.334,1.346,0,1,"gul","3_1",4,1,0,1,"Left_lead","Male","Male","surrender",0.232623143895682,0.21850809879027,1.0645973544393,0.064597354439297,1,1,-1.29181962903657,-1.29954843764443,1,0
"37","1_1",74,"3_1",74,"3",1,"Male","Male",24,23,"Stim\r11y10g06b19.jpeg","Stim\r05y09g02b34.jpeg",11,5,10,9,6,2,19,34,-2,1,-1,0,1,0,1,1.349,1.844,1.659,0,1,"grøn","3_1",-4,1,0,0,"Left_lead","Male","Male","stick",0.20012934583946,0.201515735509898,0.993120191498049,-0.00687980850195147,2,1,-0.267273026697222,-1.29954843764443,2,1
"38","1_1",8,"3_1",8,"3",1,"Male","Male",24,23,"Stim\r08y23g10b29.jpeg","Stim\r10y02g36b05.jpeg",8,10,23,2,10,36,29,5,2,-1,-1,0,1,0,0,2.192,2.055,1.961,0,1,"rød","3_1",2,0,1,0,"Left_lead","Male","Male","surrender",NA,NA,NA,NA,2,1,-0.267273026697222,-1.29954843764443,2,1
"39","1_1",80,"3_1",80,"3",1,"Male","Male",24,23,"Stim\r20y14g02b19.jpeg","Stim\r07y02g03b06.jpeg",20,7,14,2,2,3,19,6,-1,2,0,1,0,1,1,0.946,1.392,0,3.265,1,"grøn","3_1",1,1,0,1,"Right_lead","Male","Male","stick",0.15952896497717,0.190822651285185,1.19616303730481,0.196163037304814,1,2,-1.29181962903657,0.316106376724322,2,1
"40","1_1",85,"3_1",85,"3",1,"Male","Male",24,23,"Stim\r09y15g18b07.jpeg","Stim\r03y06g12b09.jpeg",9,3,15,6,18,12,7,9,-4,1,0,-1,1,0,1,1.008,0.854,0,1.531,1,"grøn","3_1",-6,1,0,0,"Right_lead","Male","Male","surrender",0.1784106724457,0.174350897089045,0.97724477296676,-0.0227552270332404,4,1,1.78182017798148,-1.29954843764443,0.25,-0.75
"41","1_1",87,"3_1",87,"3",1,"Male","Male",24,23,"Stim\r15y05g12b10.jpeg","Stim\r08y23g10b29.jpeg",15,8,5,23,12,10,10,29,-3,2,-1,0,1,0,1,1.011,1.223,1.38,0,1,"grøn","3_1",-2,1,0,0,"Left_lead","Male","Male","stick",0.2262581703599,0.229321533760555,0.98664162344277,-0.0133583765572298,3,2,0.75727357564213,0.316106376724322,1.5,0.5
"42","1_1",88,"3_1",88,"3",1,"Male","Male",24,23,"Stim\r19y10g06b15.jpeg","Stim\r10y13g07b36.jpeg",19,10,10,13,6,7,15,36,-1,2,0,1,0,1,1,1.203,1.201,0,3.777,1,"grøn","3_1",1,1,0,1,"Right_lead","Male","Male","stick",0.24194931794285,0.2289873478943,0.946426920485836,-0.0535730795141638,1,2,-1.29181962903657,0.316106376724322,2,1
"43","1_1",89,"3_1",89,"3",1,"Male","Male",24,23,"Stim\r13y33g08b23.jpeg","Stim\r06y36g16b14.jpeg",13,6,33,36,8,16,23,14,-1,1,0,-1,0,1,0,2.091,2.021,0,3.893,1,"grøn","3_1",8,1,0,0,"Right_lead","Male","Male","surrender",0.241741640652309,0.237340129515425,0.981792499111832,-0.0182075008881676,1,1,-1.29181962903657,-1.29954843764443,1,0
"44","1_1",90,"3_1",90,"3",1,"Male","Male",24,23,"Stim\r16y21g04b04.jpeg","Stim\r11y10g06b19.jpeg",16,11,21,10,4,6,4,19,-2,2,0,-1,0,1,0,1.27,1.25,0,3.656,1,"grøn","3_1",2,1,0,0,"Right_lead","Male","Male","surrender",0.256665975670545,0.2483849973289,0.967736361159632,-0.0322636388403675,2,2,-0.267273026697222,0.316106376724322,1,0
"45","1_1",95,"3_1",95,"3",1,"Male","Male",24,23,"Stim\r07y06g08b05.jpeg","Stim\r16y09g06b10.jpeg",7,16,6,9,8,6,5,10,-4,1,-1,0,1,0,1,1.435,2.048,0.868,0,1,"grøn","3_1",-2,1,0,0,"Left_lead","Male","Male","stick",0.2520537903238,0.270496867106985,0.931817780440723,-0.0681822195592769,4,1,1.78182017798148,-1.29954843764443,4,3
"46","1_1",97,"3_1",97,"3",1,"Male","Male",24,23,"Stim\r02y19g24b04.jpeg","Stim\r10y27g22b14.jpeg",2,10,19,27,24,22,4,14,-2,1,0,-1,1,0,1,1.173,1.483,0,3.596,1,"grøn","3_1",-2,1,0,0,"Right_lead","Male","Male","surrender",NA,NA,NA,NA,2,1,-0.267273026697222,-1.29954843764443,0.5,-0.5
"47","1_2",13,"4_2",13,"4",1,"Female","Male",23,23,"Stim\r05y40g33b16.jpeg","Stim\r04y16g13b13.jpeg",5,4,40,16,33,13,16,13,2,-1,1,0,0,1,0,1.47,2.899,3.892,0,2,"rød","4_1",-1,0,1,1,"Left_lead","Female","Male","stick",0.22091578126603,0.20558955203477,1.07454770478155,0.0745477047815541,2,1,-0.0770991079443883,-2.16887067387615,2,1
"48","1_2",15,"4_2",15,"4",1,"Female","Male",23,23,"Stim\r11y14g08b23.jpeg","Stim\r09y15g18b07.jpeg",11,9,14,15,8,18,23,7,-2,2,-1,0,1,0,1,1.539,2.302,3.311,0,2,"rød","4_1",-2,1,0,0,"Left_lead","Female","Male","stick",0.26126572799261,0.23538188909303,1.10996529511814,0.109965295118138,2,2,-0.0770991079443883,-0.619677335393187,1,0
"49","1_2",22,"4_2",22,"4",1,"Female","Male",23,23,"Stim\r20y04g39b23.jpeg","Stim\r14y10g15b15.jpeg",20,14,4,10,39,15,23,15,-1,3,0,1,1,0,0,1.342,1.971,0,2.794,2,"rød","4_1",-6,1,0,1,"Right_lead","Male","Female","stick",0.260264914102001,0.25866762250703,0.993862823959648,-0.00613717604035158,1,3,-1.04083795724924,0.92951600308978,3,2
"50","1_2",28,"4_2",28,"4",1,"Female","Male",23,23,"Stim\r10y07g11b10.jpeg","Stim\r10y03g03b07.jpeg",10,10,7,3,11,3,10,7,-2,3,1,0,1,0,0,1.933,2.262,3.532,0,2,"blå","4_1",-3,1,0,1,"Left_lead","Female","Male","surrender",0.255170066310166,0.246217144288373,1.03636189530046,0.0363618953004636,2,3,-0.0770991079443883,0.92951600308978,0.666666666666667,-0.333333333333333
"51","1_2",3,"4_2",3,"4",1,"Female","Male",23,23,"Stim\r21y31g06b08.jpeg","Stim\r20y14g02b19.jpeg",21,20,31,14,6,2,8,19,3,-3,0,1,0,1,0,1.192,3.086,0,3.017,2,"rød","4_1",-1,0,1,1,"Right_lead","Male","Female","surrender",NA,NA,NA,NA,3,3,0.886639741360465,0.92951600308978,1,0
"52","1_2",36,"4_2",36,"4",1,"Female","Male",23,23,"Stim\r21y01g04b27.jpeg","Stim\r15y17g24b30.jpeg",21,15,1,17,4,24,27,30,1,-3,-1,0,1,0,0,1.821,1.85,5.512,0,2,"blå","4_1",3,0,1,0,"Left_lead","Female","Male","surrender",0.17573361724605,0.1625259755417,1.08126480496628,0.0812648049662759,1,3,-1.04083795724924,0.92951600308978,0.333333333333333,-0.666666666666667
"53","1_2",38,"4_2",38,"4",1,"Female","Male",23,23,"Stim\r13y33g08b23.jpeg","Stim\r03y11g01b26.jpeg",13,3,33,11,8,1,23,26,2,-3,0,1,1,0,1,1.247,2.593,0,2.376,2,"blå","4_1",3,0,1,1,"Right_lead","Male","Female","surrender",0.158947870472665,0.14983107691372,0.942642870698209,-0.0573571293017913,2,3,-0.0770991079443883,0.92951600308978,1.5,0.5
"54","1_2",4,"4_2",4,"4",1,"Female","Male",23,23,"Stim\r14y10g15b15.jpeg","Stim\r21y24g16b04.jpeg",14,21,10,24,15,16,15,4,2,-2,0,-1,1,0,0,1.523,1.554,0,2.404,2,"rød","4_1",7,0,1,0,"Right_lead","Male","Female","stick",NA,NA,NA,NA,2,2,-0.0770991079443883,-0.619677335393187,1,0
"55","1_2",43,"4_2",43,"4",1,"Female","Male",23,23,"Stim\r12y09g30b18.jpeg","Stim\r11y10g06b19.jpeg",12,11,9,10,30,6,18,19,4,-3,1,0,1,0,1,1.703,1.506,1.51,0,2,"blå","4_1",1,0,1,1,"Left_lead","Female","Male","stick",0.17588639517495,0.17393331938189,1.01122887667527,0.0112288766752724,4,3,1.85037859066532,0.92951600308978,1.33333333333333,0.333333333333333
"56","1_2",46,"4_2",46,"4",1,"Female","Male",23,23,"Stim\r22y23g20b06.jpeg","Stim\r16y09g06b10.jpeg",22,16,23,9,20,6,6,10,1,-3,0,-1,1,0,0,2.035,2.115,0,2.215,2,"blå","4_1",4,0,1,0,"Right_lead","Male","Female","stick",0.217129745811855,0.207357899527812,0.954995358892418,-0.0450046411075818,1,3,-1.04083795724924,0.92951600308978,3,2
"57","1_2",49,"4_2",49,"4",1,"Female","Male",23,23,"Stim\r22y35g09b11.jpeg","Stim\r13y33g08b23.jpeg",22,13,35,33,9,8,11,23,-1,2,1,0,1,0,0,2.159,1.371,4.01,0,2,"gul","4_1",-2,1,0,1,"Left_lead","Female","Male","surrender",0.207563277093395,0.195239887197195,1.06311922257849,0.0631192225784949,1,2,-1.04083795724924,-0.619677335393187,0.5,-0.5
"58","1_2",56,"4_2",56,"4",1,"Female","Male",23,23,"Stim\r09y17g32b21.jpeg","Stim\r13y21g23b09.jpeg",9,13,17,21,32,23,21,9,-4,3,0,-1,0,1,0,2.293,1.472,0,1.642,2,"gul","4_1",4,1,0,0,"Right_lead","Male","Female","surrender",0.17410258248316,0.181485100319325,1.04240326439086,0.0424032643908603,4,3,1.85037859066532,0.92951600308978,0.75,-0.25
"59","1_2",57,"4_2",57,"4",1,"Female","Male",23,23,"Stim\r09y15g18b07.jpeg","Stim\r17y12g19b18.jpeg",9,17,15,12,18,19,7,18,-2,2,-1,0,1,0,1,1.804,4.033,4.565,0,2,"gul","4_1",-3,1,0,0,"Left_lead","Female","Male","stick",0.16683740162708,0.172937173659445,0.964728392957451,-0.0352716070425491,2,2,-0.0770991079443883,-0.619677335393187,1,0
"60","1_2",58,"4_2",58,"4",1,"Female","Male",23,23,"Stim\r10y03g03b07.jpeg","Stim\r03y06g12b09.jpeg",10,3,3,6,3,12,7,9,2,-2,-1,0,1,0,0,2.34,1.803,2.205,0,2,"gul","4_1",3,0,1,0,"Left_lead","Female","Male","surrender",0.17577461611406,0.181450994358525,0.968716742145545,-0.031283257854455,2,2,-0.0770991079443883,-0.619677335393187,1,0
"61","1_2",6,"4_2",6,"4",1,"Female","Male",23,23,"Stim\r10y27g22b14.jpeg","Stim\r13y33g08b23.jpeg",10,13,27,33,22,8,14,23,3,-2,1,0,1,0,1,2.001,1.847,2.105,0,2,"rød","4_1",3,0,1,1,"Left_lead","Female","Male","stick",NA,NA,NA,NA,3,2,0.886639741360465,-0.619677335393187,1.5,0.5
"62","1_2",7,"4_2",7,"4",1,"Female","Male",23,23,"Stim\r13y24g05b28.jpeg","Stim\r14y10g15b15.jpeg",13,14,24,10,5,15,28,15,4,-2,0,1,1,0,1,1.537,1.95,0,1.34,2,"rød","4_1",1,0,1,1,"Right_lead","Male","Female","surrender",NA,NA,NA,NA,4,2,1.85037859066532,-0.619677335393187,0.5,-0.5
"63","1_2",71,"4_2",71,"4",1,"Female","Male",23,23,"Stim\r04y16g13b13.jpeg","Stim\r17y20g40b07.jpeg",4,17,16,20,13,40,13,7,-1,3,0,1,0,1,1,2.162,1.409,0,2.149,2,"gul","4_1",4,1,0,1,"Right_lead","Male","Female","stick",0.219853212177559,0.223053412804575,1.01455607855496,0.0145560785549563,1,3,-1.04083795724924,0.92951600308978,3,2
"64","1_2",72,"4_2",72,"4",1,"Female","Male",23,23,"Stim\r03y11g01b26.jpeg","Stim\r08y12g20b03.jpeg",3,8,11,12,1,20,26,3,1,-2,1,0,1,0,1,1.976,1.439,1.407,0,2,"gul","4_1",1,0,1,1,"Left_lead","Female","Male","stick",0.210441214720495,0.211614849571062,0.994453910711153,-0.00554608928884681,1,2,-1.04083795724924,-0.619677335393187,0.5,-0.5
"65","1_2",76,"4_2",76,"4",1,"Female","Male",23,23,"Stim\r17y07g07b24.jpeg","Stim\r10y03g03b07.jpeg",17,10,7,3,7,3,24,7,-4,2,-1,0,1,0,1,1.57,2.632,1.267,0,2,"grøn","4_1",-4,1,0,0,"Left_lead","Female","Male","stick",0.213028855158535,0.2074366570235,1.02695858203308,0.0269585820330756,4,2,1.85037859066532,-0.619677335393187,2,1
"66","1_2",78,"4_2",78,"4",1,"Female","Male",23,23,"Stim\r14y08g21b39.jpeg","Stim\r08y12g20b03.jpeg",14,8,8,12,21,20,39,3,1,-2,1,0,0,1,0,1.022,1.334,1.394,0,2,"grøn","4_1",-1,0,1,1,"Left_lead","Female","Male","stick",0.195644670896415,0.18955866062668,1.03210621055042,0.0321062105504157,1,2,-1.04083795724924,-0.619677335393187,0.5,-0.5
"67","1_2",79,"4_2",79,"4",1,"Female","Male",23,23,"Stim\r21y24g16b04.jpeg","Stim\r09y15g18b07.jpeg",21,9,24,15,16,18,4,7,2,-2,0,1,1,0,1,1.148,4.692,0,2.5,2,"grøn","4_1",2,0,1,1,"Right_lead","Male","Female","surrender",0.195375308582,0.189477891250935,0.969814930177885,-0.0301850698221153,2,2,-0.0770991079443883,-0.619677335393187,1,0
"68","1_2",84,"4_2",84,"4",1,"Female","Male",23,23,"Stim\r07y02g03b06.jpeg","Stim\r10y37g07b02.jpeg",7,10,2,37,3,7,6,2,-2,3,-1,0,0,1,0,1.665,3.007,2.355,0,2,"grøn","4_1",4,1,0,0,"Left_lead","Female","Male","stick",0.20330577531644,0.19520169706951,1.04151643335377,0.0415164333537748,2,3,-0.0770991079443883,0.92951600308978,0.666666666666667,-0.333333333333333
"69","1_2",90,"4_2",90,"4",1,"Female","Male",23,23,"Stim\r10y07g11b10.jpeg","Stim\r18y19g14b27.jpeg",10,18,7,19,11,14,10,27,-2,3,1,0,0,1,1,1.827,1.573,2.359,0,2,"grøn","4_1",3,1,0,1,"Left_lead","Female","Male","surrender",0.2837402822086,0.25767619282425,1.10115055294273,0.101150552942728,2,3,-0.0770991079443883,0.92951600308978,0.666666666666667,-0.333333333333333
"70","1_2",92,"4_2",92,"4",1,"Female","Male",23,23,"Stim\r12y12g14b26.jpeg","Stim\r11y14g08b23.jpeg",12,11,12,14,14,8,26,23,-2,1,0,-1,1,0,1,1.432,2.695,0,2.127,2,"grøn","4_1",-6,1,0,0,"Right_lead","Male","Female","surrender",0.256232219904449,0.2478984315514,0.967475642383473,-0.0325243576165274,2,1,-0.0770991079443883,-2.16887067387615,0.5,-0.5
"71","1_2",95,"4_2",95,"4",1,"Female","Male",23,23,"Stim\r07y14g27b22.jpeg","Stim\r12y09g30b18.jpeg",7,12,14,9,27,30,22,18,-1,3,1,0,0,1,1,1.625,3.323,2.853,0,2,"grøn","4_1",3,1,0,1,"Left_lead","Female","Male","surrender",0.268712163861,0.2678500107679,1.00321879058593,0.00321879058592645,1,3,-1.04083795724924,0.92951600308978,0.333333333333333,-0.666666666666667
"72","11_1",10,"9_1",10,"9",11,"Male","Male",23,23,"Stim\r01y27g01b01.jpeg","Stim\r04y39g24b15.jpeg",1,4,27,39,1,24,1,15,-3,2,0,1,0,1,1,9.674,2.235,0,5.264,1,"rød","9_11",3,1,0,1,"Right_lead","Male","Male","stick",0.222222654912095,0.22713511477468,1.02210602633889,0.0221060263388908,3,2,-0.66884408058887,-0.952500952501429,0.666666666666667,-0.333333333333333
"73","11_1",16,"9_1",16,"9",11,"Male","Male",23,23,"Stim\r14y10g15b15.jpeg","Stim\r15y05g12b10.jpeg",14,15,10,5,15,12,15,10,4,-4,1,0,1,0,1,1.404,2.117,2.386,0,1,"rød","9_11",1,0,1,1,"Left_lead","Male","Male","stick",0.210714315052655,0.22911046384577,0.919706204228635,-0.0802937957713651,4,4,0.812167812143628,1.01600101600152,1,0
"74","11_1",17,"9_1",17,"9",11,"Male","Male",23,23,"Stim\r02y19g24b04.jpeg","Stim\r04y39g24b15.jpeg",2,4,19,39,24,24,4,15,-4,3,0,1,0,1,1,2.177,1.789,0,1.975,1,"rød","9_11",2,1,0,1,"Right_lead","Male","Male","stick",0.21329347268425,0.242956620293375,1.13907198957296,0.139071989572963,4,3,0.812167812143628,0.0317500317500476,0.75,-0.25
"75","11_1",20,"9_1",20,"9",11,"Male","Male",23,23,"Stim\r21y31g06b08.jpeg","Stim\r17y11g38b07.jpeg",21,17,31,11,6,38,8,7,-4,4,0,1,1,0,0,1.773,1.369,0,1.548,1,"rød","9_11",-4,1,0,1,"Right_lead","Male","Male","stick",0.21915490672179,0.236596692042315,1.07958656085518,0.0795865608551798,4,4,0.812167812143628,1.01600101600152,1,0
"76","11_1",22,"9_1",22,"9",11,"Male","Male",23,23,"Stim\r05y40g33b16.jpeg","Stim\r08y23g10b29.jpeg",5,8,40,23,33,10,16,29,4,-2,1,0,1,0,1,3.141,2.354,3.796,0,1,"rød","9_11",3,0,1,1,"Left_lead","Male","Male","stick",0.258037815239092,0.25832941382035,0.99887121417207,-0.00112878582793041,4,2,0.812167812143628,-0.952500952501429,2,1
"77","11_1",24,"9_1",24,"9",11,"Male","Male",23,23,"Stim\r10y37g07b02.jpeg","Stim\r06y14g31b25.jpeg",10,6,37,14,7,31,2,25,4,-3,0,-1,0,1,1,1.145,1.457,0,1.214,1,"rød","9_11",-4,0,1,0,"Right_lead","Male","Male","stick",0.261309174411195,0.26319956410983,1.00723430282498,0.00723430282497572,4,3,0.812167812143628,0.0317500317500476,0.75,-0.25
"78","11_1",25,"9_1",25,"9",11,"Male","Male",23,23,"Stim\r06y14g31b25.jpeg","Stim\r09y06g26b32.jpeg",6,9,14,6,31,26,25,32,4,-3,1,0,1,0,1,1.843,1.339,1.916,0,1,"rød","9_11",3,0,1,1,"Left_lead","Male","Male","stick",0.268154987838205,0.270855480811015,0.990029764342505,-0.00997023565749522,4,3,0.812167812143628,0.0317500317500476,1.33333333333333,0.333333333333333
"79","11_1",29,"9_1",29,"9",11,"Male","Male",23,23,"Stim\r12y09g30b18.jpeg","Stim\r10y27g22b14.jpeg",12,10,9,27,30,22,18,14,4,-3,-1,0,0,1,1,1.819,2.099,2.679,0,1,"blå","9_11",-4,0,1,0,"Left_lead","Male","Male","surrender",0.24852795960615,0.24225018422039,1.02591442977005,0.025914429770046,4,3,0.812167812143628,0.0317500317500476,1.33333333333333,0.333333333333333
"80","11_1",30,"9_1",30,"9",11,"Male","Male",23,23,"Stim\r10y02g36b05.jpeg","Stim\r04y28g27b06.jpeg",10,4,2,28,36,27,5,6,4,-2,0,1,1,0,1,1.906,1.769,0,2.152,1,"blå","9_11",1,0,1,1,"Right_lead","Male","Male","surrender",0.24724690078835,0.24382676070245,0.9861671063419,-0.0138328936580998,4,2,0.812167812143628,-0.952500952501429,0.5,-0.5
"81","11_1",32,"9_1",32,"9",11,"Male","Male",23,23,"Stim\r04y16g13b13.jpeg","Stim\r15y05g12b10.jpeg",4,15,16,5,13,12,13,10,-3,3,0,1,1,0,0,1.365,1.578,0,1.263,1,"blå","9_11",-3,1,0,1,"Right_lead","Male","Male","stick",0.24148012051775,0.23208311881745,0.961085816587501,-0.0389141834124986,3,3,-0.66884408058887,0.0317500317500476,1,0
"82","11_1",33,"9_1",33,"9",11,"Male","Male",23,23,"Stim\r06y14g31b25.jpeg","Stim\r13y24g05b28.jpeg",6,13,14,24,31,5,25,28,3,-2,0,-1,1,0,0,1.691,1.571,0,1.912,1,"blå","9_11",3,0,1,0,"Right_lead","Male","Male","stick",0.227441156728455,0.2228952196821,0.980012689384171,-0.0199873106158287,3,2,-0.66884408058887,-0.952500952501429,0.666666666666667,-0.333333333333333
"83","11_1",34,"9_1",34,"9",11,"Male","Male",23,23,"Stim\r17y20g40b07.jpeg","Stim\r09y07g06b09.jpeg",17,9,20,7,40,6,7,9,4,-2,1,0,1,0,1,1.297,2.01,1.113,0,1,"blå","9_11",2,0,1,1,"Left_lead","Male","Male","stick",0.20485173500795,0.20313528278607,1.0084497985694,0.00844979856939809,4,2,0.812167812143628,-0.952500952501429,2,1
"84","11_1",37,"9_1",37,"9",11,"Male","Male",23,23,"Stim\r16y21g04b04.jpeg","Stim\r17y11g38b07.jpeg",16,17,21,11,4,38,4,7,4,-3,0,-1,1,0,0,1.118,1.399,0,1.181,1,"blå","9_11",3,0,1,0,"Right_lead","Male","Male","stick",0.152025081705498,0.164010240803951,1.07883672196717,0.0788367219671722,4,3,0.812167812143628,0.0317500317500476,0.75,-0.25
"85","11_1",39,"9_1",39,"9",11,"Male","Male",23,23,"Stim\r22y35g09b11.jpeg","Stim\r09y07g06b09.jpeg",22,9,35,7,9,6,11,9,-2,1,0,-1,1,0,1,3.815,2.556,0,3.192,1,"blå","9_11",-2,1,0,0,"Right_lead","Male","Male","surrender",0.14580831606828,0.1530150836647,1.04942631388079,0.0494263138807884,2,1,-2.14985597332137,-1.93675193675291,0.5,-0.5
"86","11_1",43,"9_1",43,"9",11,"Male","Male",23,23,"Stim\r11y14g08b23.jpeg","Stim\r09y17g32b21.jpeg",11,9,14,17,8,32,23,21,2,-2,0,-1,0,1,1,2.535,2.581,0,1.68,1,"blå","9_11",-2,0,1,0,"Right_lead","Male","Male","stick",0.149365405663,0.163951997546335,1.09765709682633,0.0976570968263257,2,2,-2.14985597332137,-0.952500952501429,1,0
"87","11_1",45,"9_1",45,"9",11,"Male","Male",23,23,"Stim\r21y24g16b04.jpeg","Stim\r21y31g06b08.jpeg",21,21,24,31,16,6,4,8,4,-1,0,-1,1,0,0,1.799,1.78,0,1.811,1,"blå","9_11",4,0,1,0,"Right_lead","Male","Male","stick",0.17636727638395,0.188865233262165,1.07086324138162,0.0708632413816215,4,1,0.812167812143628,-1.93675193675291,0.25,-0.75
"88","11_1",49,"9_1",49,"9",11,"Male","Male",23,23,"Stim\r08y09g09b11.jpeg","Stim\r03y06g12b09.jpeg",8,3,9,6,9,12,11,9,3,-2,1,0,0,1,0,0.99,1.035,1.346,0,1,"blå","9_11",-2,0,1,1,"Left_lead","Male","Male","stick",0.152831801581093,0.189394360900941,0.806950116434716,-0.193049883565284,3,2,-0.66884408058887,-0.952500952501429,1.5,0.5
"89","11_1",54,"9_1",54,"9",11,"Male","Male",23,23,"Stim\r15y16g12b03.jpeg","Stim\r02y19g24b04.jpeg",15,2,16,19,12,24,3,4,-3,4,-1,0,0,1,0,1.417,1.231,1.41,0,1,"gul","9_11",3,1,0,0,"Left_lead","Male","Male","stick",0.15881161028159,0.178854218478428,0.887938856755255,-0.112061143244745,3,4,-0.66884408058887,1.01600101600152,0.75,-0.25
"90","11_1",57,"9_1",57,"9",11,"Male","Male",23,23,"Stim\r15y17g24b30.jpeg","Stim\r19y15g35b05.jpeg",15,19,17,15,24,35,30,5,-4,4,0,1,1,0,0,1.936,2.086,0,1.501,1,"gul","9_11",-2,1,0,1,"Right_lead","Male","Male","stick",0.17424978278124,0.16930231700114,0.971607047646589,-0.0283929523534112,4,4,0.812167812143628,1.01600101600152,1,0
"91","11_1",58,"9_1",58,"9",11,"Male","Male",23,23,"Stim\r11y26g25b38.jpeg","Stim\r05y28g23b30.jpeg",11,5,26,28,25,23,38,30,-3,4,1,0,0,1,1,1.851,1.447,2.295,0,1,"gul","9_11",2,1,0,1,"Left_lead","Male","Male","surrender",0.17868351203751,0.180742491537013,0.988608215577899,-0.0113917844221005,3,4,-0.66884408058887,1.01600101600152,0.75,-0.25
"92","11_1",59,"9_1",59,"9",11,"Male","Male",23,23,"Stim\r09y15g18b07.jpeg","Stim\r08y12g20b03.jpeg",9,8,15,12,18,20,7,3,-4,2,-1,0,1,0,1,1.379,1.791,1.562,0,1,"gul","9_11",-3,1,0,0,"Left_lead","Male","Male","stick",0.18127027383338,0.183444910983316,0.988145557495821,-0.0118544425041792,4,2,0.812167812143628,-0.952500952501429,2,1
"93","11_1",60,"9_1",60,"9",11,"Male","Male",23,23,"Stim\r19y15g35b05.jpeg","Stim\r12y12g14b26.jpeg",19,12,15,12,35,14,5,26,-2,4,0,1,1,0,0,1.64,1.753,0,1.411,1,"gul","9_11",-3,1,0,1,"Right_lead","Male","Male","stick",0.193828295090046,0.187379910525555,0.966731459091175,-0.033268540908825,2,4,-2.14985597332137,1.01600101600152,2,1
"94","11_1",62,"9_1",62,"9",11,"Male","Male",23,23,"Stim\r21y31g06b08.jpeg","Stim\r01y27g01b01.jpeg",21,1,31,27,6,1,8,1,-4,4,-1,0,1,0,1,2.077,1.555,2.793,0,1,"gul","9_11",-4,1,0,0,"Left_lead","Male","Male","stick",0.222270475263997,0.197103524341835,1.12768392146309,0.127683921463094,4,4,0.812167812143628,1.01600101600152,1,0
"95","11_1",63,"9_1",63,"9",11,"Male","Male",23,23,"Stim\r22y23g20b06.jpeg","Stim\r21y24g16b04.jpeg",22,21,23,24,20,16,6,4,-3,2,-1,0,0,1,0,1.632,2.08,1.272,0,1,"gul","9_11",1,1,0,0,"Left_lead","Male","Male","stick",0.23421888704606,0.22337026098915,1.04856790697593,0.0485679069759288,3,2,-0.66884408058887,-0.952500952501429,1.5,0.5
"96","11_1",66,"9_1",66,"9",11,"Male","Male",23,23,"Stim\r02y19g24b04.jpeg","Stim\r19y15g35b05.jpeg",2,19,19,15,24,35,4,5,-3,4,0,1,1,0,0,1.051,1.48,0,2.158,1,"gul","9_11",-4,1,0,1,"Right_lead","Male","Male","stick",0.2038251587565,0.22032054205,1.08092908350537,0.0809290835053695,3,4,-0.66884408058887,1.01600101600152,1.33333333333333,0.333333333333333
"97","11_1",73,"9_1",73,"9",11,"Male","Male",23,23,"Stim\r09y17g32b21.jpeg","Stim\r07y14g27b22.jpeg",9,7,17,14,32,27,21,22,-3,4,0,1,1,0,0,1.619,1.183,0,1.126,1,"gul","9_11",-3,1,0,1,"Right_lead","Male","Male","stick",0.199452174019731,0.20714484938718,1.03856902239977,0.0385690223997659,3,4,-0.66884408058887,1.01600101600152,1.33333333333333,0.333333333333333
"98","11_1",85,"9_1",85,"9",11,"Male","Male",23,23,"Stim\r17y12g19b18.jpeg","Stim\r21y24g16b04.jpeg",17,21,12,24,19,16,18,4,3,-4,0,-1,0,1,1,1.878,1.803,0,1.278,1,"grøn","9_11",-3,0,1,0,"Right_lead","Male","Male","stick",0.187283389859671,0.176123672456825,0.94041266867709,-0.0595873313229103,3,4,-0.66884408058887,1.01600101600152,1.33333333333333,0.333333333333333
"99","11_1",87,"9_1",87,"9",11,"Male","Male",23,23,"Stim\r06y14g31b25.jpeg","Stim\r07y14g27b22.jpeg",6,7,14,14,31,27,25,22,4,-4,0,-1,0,1,1,1.958,1.881,0,2.423,1,"grøn","9_11",-4,0,1,0,"Right_lead","Male","Male","stick",0.253091458009214,0.230617614422831,0.911202678418468,-0.0887973215815322,4,4,0.812167812143628,1.01600101600152,1,0
"100","11_1",9,"9_1",9,"9",11,"Male","Male",23,23,"Stim\r13y24g05b28.jpeg","Stim\r21y31g06b08.jpeg",13,21,24,31,5,6,28,8,3,-2,1,0,1,0,1,1.64,2.201,2.945,0,1,"rød","9_11",8,0,1,1,"Left_lead","Male","Male","stick",NA,NA,NA,NA,3,2,-0.66884408058887,-0.952500952501429,1.5,0.5
"101","11_1",90,"9_1",90,"9",11,"Male","Male",23,23,"Stim\r06y19g29b08.jpeg","Stim\r05y40g33b16.jpeg",6,5,19,40,29,33,8,16,4,-4,0,-1,1,0,0,1.255,1.683,0,1.174,1,"grøn","9_11",4,0,1,0,"Right_lead","Male","Male","stick",0.27428106435083,0.268489886024455,0.978885971074665,-0.0211140289253346,4,4,0.812167812143628,1.01600101600152,1,0
"102","11_1",93,"9_1",93,"9",11,"Male","Male",23,23,"Stim\r11y14g08b23.jpeg","Stim\r13y24g05b28.jpeg",11,13,14,24,8,5,23,28,-4,4,0,-1,1,0,1,1.275,1.005,0,1.014,1,"grøn","9_11",-3,1,0,0,"Right_lead","Male","Male","surrender",0.22056756293171,0.2614539569515,1.18536902469403,0.185369024694029,4,4,0.812167812143628,1.01600101600152,1,0
"103","11_2",11,"12_2",11,"12",11,"Female","Male",24,23,"Stim\r21y01g04b27.jpeg","Stim\r18y13g28b06.jpeg",21,18,1,13,4,28,27,6,1,-4,-1,0,0,1,1,1.925,1.271,1.975,0,2,"rød","12_11",-3,0,1,0,"Left_lead","Female","Male","surrender",0.200450371577511,0.197634526528768,1.01424773848072,0.0142477384807209,1,4,-0.640961115694596,0.440170421541475,0.25,-0.75
"104","11_2",14,"12_2",14,"12",11,"Female","Male",24,23,"Stim\r10y07g11b10.jpeg","Stim\r14y10g15b15.jpeg",10,14,7,10,11,15,10,15,-1,4,0,1,0,1,1,1.088,1.318,0,1.437,2,"rød","12_11",4,1,0,1,"Right_lead","Male","Female","stick",0.224869023740385,0.2187131878394,0.972624793763982,-0.0273752062360177,1,4,-0.640961115694596,0.440170421541475,4,3
"105","11_2",18,"12_2",18,"12",11,"Female","Male",24,23,"Stim\r14y12g04b29.jpeg","Stim\r17y20g40b07.jpeg",14,17,12,20,4,40,29,7,1,-4,-1,0,1,0,0,1.894,1.24,1.566,0,2,"rød","12_11",3,0,1,0,"Left_lead","Female","Male","surrender",0.245623844794345,0.24964711344784,0.983884177157387,-0.0161158228426126,1,4,-0.640961115694596,0.440170421541475,0.25,-0.75
"106","11_2",2,"12_2",2,"12",11,"Female","Male",24,23,"Stim\r14y08g21b39.jpeg","Stim\r18y13g28b06.jpeg",14,18,8,13,21,28,39,6,2,-3,-1,0,1,0,0,1.07,1.5,4.155,0,2,"rød","12_11",4,0,1,0,"Left_lead","Female","Male","surrender",NA,NA,NA,NA,2,3,0.498525312206908,-1.32051126462443,0.666666666666667,-0.333333333333333
"107","11_2",21,"12_2",21,"12",11,"Female","Male",24,23,"Stim\r17y22g16b15.jpeg","Stim\r13y21g23b09.jpeg",17,13,22,21,16,23,15,9,1,-4,-1,0,0,1,1,1.435,2.547,1.53,0,2,"rød","12_11",-4,0,1,0,"Left_lead","Female","Male","surrender",0.24772111062814,0.245355260459375,1.0096425491931,0.00964254919309848,1,4,-0.640961115694596,0.440170421541475,0.25,-0.75
"108","11_2",23,"12_2",23,"12",11,"Female","Male",24,23,"Stim\r06y19g29b08.jpeg","Stim\r05y28g23b30.jpeg",6,5,19,28,29,23,8,30,2,-4,0,-1,0,1,1,1.099,1.56,0,2.498,2,"rød","12_11",-1,0,1,0,"Right_lead","Male","Female","stick",0.259897187177605,0.257581949826915,0.991091718322031,-0.0089082816779692,2,4,0.498525312206908,0.440170421541475,2,1
"109","11_2",27,"12_2",27,"12",11,"Female","Male",24,23,"Stim\r20y14g02b19.jpeg","Stim\r04y39g24b15.jpeg",20,4,14,39,2,24,19,15,4,-4,0,1,0,1,0,1.315,1.229,0,2.282,2,"blå","12_11",-4,0,1,1,"Right_lead","Male","Female","surrender",0.25872246407863,0.25676623119657,0.992438875035353,-0.00756112496464723,4,4,2.77749816800991,0.440170421541475,1,0
"110","11_2",28,"12_2",28,"12",11,"Female","Male",24,23,"Stim\r10y13g07b36.jpeg","Stim\r15y17g24b30.jpeg",10,15,13,17,7,24,36,30,3,-4,0,-1,0,1,1,1.037,1.233,0,1.405,2,"blå","12_11",-6,0,1,0,"Right_lead","Male","Female","stick",0.253667717179155,0.251255422890339,0.990490337849683,-0.00950966215031734,3,4,1.63801174010841,0.440170421541475,1.33333333333333,0.333333333333333
"111","11_2",29,"12_2",29,"12",11,"Female","Male",24,23,"Stim\r07y06g08b05.jpeg","Stim\r18y13g28b06.jpeg",7,18,6,13,8,28,5,6,1,-4,-1,0,1,0,0,1.567,2.013,1.963,0,2,"blå","12_11",1,0,1,0,"Left_lead","Female","Male","surrender",0.243574693977589,0.243692301254923,0.999517394366878,-0.000482605633121636,1,4,-0.640961115694596,0.440170421541475,0.25,-0.75
"112","11_2",3,"12_2",3,"12",11,"Female","Male",24,23,"Stim\r11y10g06b19.jpeg","Stim\r09y06g26b32.jpeg",11,9,10,6,6,26,19,32,1,-4,1,0,0,1,0,1.874,2.336,5.858,0,2,"rød","12_11",-2,0,1,1,"Left_lead","Female","Male","stick",NA,NA,NA,NA,1,4,-0.640961115694596,0.440170421541475,0.25,-0.75
"113","11_2",30,"12_2",30,"12",11,"Female","Male",24,23,"Stim\r22y23g20b06.jpeg","Stim\r16y21g04b04.jpeg",22,16,23,21,20,4,6,4,1,-3,0,1,0,1,0,1.572,1.701,0,2.231,2,"blå","12_11",-2,0,1,1,"Right_lead","Male","Female","surrender",0.248380588188405,0.24255427260125,0.976542790120396,-0.0234572098796043,1,3,-0.640961115694596,-1.32051126462443,3,2
"114","11_2",35,"12_2",35,"12",11,"Female","Male",24,23,"Stim\r11y13g22b35.jpeg","Stim\r21y03g15b37.jpeg",11,21,13,3,22,15,35,37,-1,4,1,0,0,1,1,1.622,1.944,1.614,0,2,"blå","12_11",2,1,0,1,"Left_lead","Female","Male","surrender",0.1943389312339,0.17893363126041,1.08609505024279,0.0860950502427908,1,4,-0.640961115694596,0.440170421541475,0.25,-0.75
"115","11_2",37,"12_2",37,"12",11,"Female","Male",24,23,"Stim\r11y10g06b19.jpeg","Stim\r05y40g33b16.jpeg",11,5,10,40,6,33,19,16,1,-4,0,-1,0,1,1,1.444,1.873,0,1.431,2,"blå","12_11",-3,0,1,0,"Right_lead","Male","Female","stick",0.177794400063263,0.162860578566463,0.916005107632826,-0.0839948923671737,1,4,-0.640961115694596,0.440170421541475,4,3
"116","11_2",38,"12_2",38,"12",11,"Female","Male",24,23,"Stim\r17y07g07b24.jpeg","Stim\r12y07g16b25.jpeg",17,12,7,7,7,16,24,25,-2,4,0,1,0,1,1,0.952,1.661,0,1.679,2,"blå","12_11",1,1,0,1,"Right_lead","Male","Female","stick",0.16137384054934,0.151149341980335,0.936640916928052,-0.0633590830719485,2,4,0.498525312206908,0.440170421541475,2,1
"117","11_2",41,"12_2",41,"12",11,"Female","Male",24,23,"Stim\r17y11g38b07.jpeg","Stim\r10y02g36b05.jpeg",17,10,11,2,38,36,7,5,1,-4,0,-1,0,1,1,0.999,2.861,0,1.161,2,"blå","12_11",-2,0,1,0,"Right_lead","Male","Female","stick",0.16732664919866,0.160735986038831,0.960611993418907,-0.0393880065810926,1,4,-0.640961115694596,0.440170421541475,4,3
"118","11_2",47,"12_2",47,"12",11,"Female","Male",24,23,"Stim\r06y14g31b25.jpeg","Stim\r14y12g04b29.jpeg",6,14,14,12,31,4,25,29,-1,4,0,1,0,1,1,1.719,2.465,0,1.378,2,"blå","12_11",4,1,0,1,"Right_lead","Male","Female","stick",0.16603308939835,0.19480237342295,1.17327440047554,0.173274400475535,1,4,-0.640961115694596,0.440170421541475,4,3
"119","11_2",48,"12_2",48,"12",11,"Female","Male",24,23,"Stim\r11y14g08b23.jpeg","Stim\r11y10g06b19.jpeg",11,11,14,10,8,6,23,19,1,-4,0,-1,0,1,1,4.497,1.224,0,1.199,2,"blå","12_11",-4,0,1,0,"Right_lead","Male","Female","stick",0.16318214843815,0.19155610348223,1.17387903833632,0.173879038336319,1,4,-0.640961115694596,0.440170421541475,4,3
"120","11_2",49,"12_2",49,"12",11,"Female","Male",24,23,"Stim\r07y02g03b06.jpeg","Stim\r19y10g06b15.jpeg",7,19,2,10,3,6,6,15,4,-4,0,1,1,0,1,1.451,2.096,0,1.16,2,"gul","12_11",8,0,1,1,"Right_lead","Male","Female","surrender",0.15624724546895,0.19359385019805,1.2390224839933,0.239022483993304,4,4,2.77749816800991,0.440170421541475,1,0
"121","11_2",51,"12_2",51,"12",11,"Female","Male",24,23,"Stim\r21y31g06b08.jpeg","Stim\r10y27g22b14.jpeg",21,10,31,27,6,22,8,14,2,-4,0,1,0,1,0,1.241,2.019,0,1.181,2,"gul","12_11",-4,0,1,1,"Right_lead","Male","Female","surrender",0.15336846038685,0.1930614067691,1.2588077514903,0.258807751490301,2,4,0.498525312206908,0.440170421541475,2,1
"122","11_2",57,"12_2",57,"12",11,"Female","Male",24,23,"Stim\r14y10g15b15.jpeg","Stim\r10y07g11b10.jpeg",14,10,10,7,15,11,15,10,-1,4,0,1,1,0,0,1.235,2.097,0,1.147,2,"gul","12_11",-3,1,0,1,"Right_lead","Male","Female","stick",0.157101523033378,0.17107385143202,1.08893821096612,0.0889382109661243,1,4,-0.640961115694596,0.440170421541475,4,3
"123","11_2",58,"12_2",58,"12",11,"Female","Male",24,23,"Stim\r04y28g27b06.jpeg","Stim\r10y27g22b14.jpeg",4,10,28,27,27,22,6,14,-3,4,1,0,1,0,0,1.434,1.563,2.728,0,2,"gul","12_11",-1,1,0,1,"Left_lead","Female","Male","surrender",0.173449709597795,0.181462030880115,0.955845742255505,-0.0441542577444946,3,4,1.63801174010841,0.440170421541475,0.75,-0.25
"124","11_2",72,"12_2",72,"12",11,"Female","Male",24,23,"Stim\r13y24g05b28.jpeg","Stim\r10y27g22b14.jpeg",13,10,24,27,5,22,28,14,-1,4,1,0,0,1,1,0.957,1.136,2.431,0,2,"gul","12_11",3,1,0,1,"Left_lead","Female","Male","surrender",0.215672510244505,0.211667047119626,1.01892341382084,0.0189234138208356,1,4,-0.640961115694596,0.440170421541475,0.25,-0.75
"125","11_2",73,"12_2",73,"12",11,"Female","Male",24,23,"Stim\r21y31g06b08.jpeg","Stim\r10y37g07b02.jpeg",21,10,31,37,6,7,8,2,1,-4,0,-1,1,0,0,2.566,2.978,0,1.114,2,"grøn","12_11",1,0,1,0,"Right_lead","Male","Female","stick",0.207610118407502,0.206946465946738,0.996803371310345,-0.00319662868965453,1,4,-0.640961115694596,0.440170421541475,4,3
"126","11_2",74,"12_2",74,"12",11,"Female","Male",24,23,"Stim\r07y06g08b05.jpeg","Stim\r09y02g05b02.jpeg",7,9,6,2,8,5,5,2,-1,4,0,1,1,0,0,0.997,1.948,0,1.955,2,"grøn","12_11",-3,1,0,1,"Right_lead","Male","Female","stick",0.201216215140679,0.201648741676568,1.00214956103606,0.00214956103605557,1,4,-0.640961115694596,0.440170421541475,4,3
"127","11_2",76,"12_2",76,"12",11,"Female","Male",24,23,"Stim\r20y04g39b23.jpeg","Stim\r17y20g40b07.jpeg",20,17,4,20,39,40,23,7,-2,4,1,0,0,1,1,0.88,3.759,2.295,0,2,"grøn","12_11",1,1,0,1,"Left_lead","Female","Male","surrender",0.206694794478185,0.20699373334399,0.99855580716877,-0.00144419283123032,2,4,0.498525312206908,0.440170421541475,0.5,-0.5
"128","11_2",78,"12_2",78,"12",11,"Female","Male",24,23,"Stim\r04y28g27b06.jpeg","Stim\r09y06g26b32.jpeg",4,9,28,6,27,26,6,32,-2,4,1,0,1,0,0,1.783,1.412,1.71,0,2,"grøn","12_11",-1,1,0,1,"Left_lead","Female","Male","surrender",0.18859321066821,0.190215197653371,0.991472884369015,-0.00852711563098518,2,4,0.498525312206908,0.440170421541475,0.5,-0.5
"129","11_2",79,"12_2",79,"12",11,"Female","Male",24,23,"Stim\r11y13g22b35.jpeg","Stim\r04y16g13b13.jpeg",11,4,13,16,22,13,35,13,-2,2,0,1,1,0,0,2.57,1.747,0,2.783,2,"grøn","12_11",-9,1,0,1,"Right_lead","Male","Female","stick",0.193436147614665,0.19049169081521,0.984778145988926,-0.015221854011074,2,2,0.498525312206908,-3.08119295079033,1,0
"130","11_2",8,"12_2",8,"12",11,"Female","Male",24,23,"Stim\r09y17g32b21.jpeg","Stim\r13y33g08b23.jpeg",9,13,17,33,32,8,21,23,1,-4,-1,0,1,0,0,2.503,1.666,2.395,0,2,"rød","12_11",4,0,1,0,"Left_lead","Female","Male","surrender",NA,NA,NA,NA,1,4,-0.640961115694596,0.440170421541475,0.25,-0.75
"131","11_2",83,"12_2",83,"12",11,"Female","Male",24,23,"Stim\r22y35g09b11.jpeg","Stim\r10y37g07b02.jpeg",22,10,35,37,9,7,11,2,-1,2,0,1,1,0,0,1.606,1.859,0,1.401,2,"grøn","12_11",-2,1,0,1,"Right_lead","Male","Female","stick",0.212165876805405,0.1802224487798,0.849441255556364,-0.150558744443636,1,2,-0.640961115694596,-3.08119295079033,2,1
"132","11_2",87,"12_2",87,"12",11,"Female","Male",24,23,"Stim\r18y19g14b27.jpeg","Stim\r04y16g13b13.jpeg",18,4,19,16,14,13,27,13,2,-3,1,0,0,1,0,1.37,1.932,4.438,0,2,"grøn","12_11",-1,0,1,1,"Left_lead","Female","Male","stick",0.21290574356227,0.229903063562665,0.926067448876069,-0.0739325511239306,2,3,0.498525312206908,-1.32051126462443,0.666666666666667,-0.333333333333333
"133","11_2",89,"12_2",89,"12",11,"Female","Male",24,23,"Stim\r17y22g16b15.jpeg","Stim\r22y23g20b06.jpeg",17,22,22,23,16,20,15,6,1,-3,0,-1,1,0,0,0.795,1.69,0,1.299,2,"grøn","12_11",4,0,1,0,"Right_lead","Male","Female","stick",0.22427484735615,0.251158319798685,1.11986842376419,0.119868423764186,1,3,-0.640961115694596,-1.32051126462443,3,2
"134","11_2",95,"12_2",95,"12",11,"Female","Male",24,23,"Stim\r11y26g25b38.jpeg","Stim\r04y39g24b15.jpeg",11,4,26,39,25,24,38,15,-1,4,0,1,1,0,0,1.353,1.633,0,1.094,2,"grøn","12_11",-1,1,0,1,"Right_lead","Male","Female","stick",0.2591441583347,0.267889473589095,1.03374691257018,0.0337469125701837,1,4,-0.640961115694596,0.440170421541475,4,3
"135","12_1",1,"10_1",1,"10",12,"Female","Female",26,24,"Stim\r10y02g36b05.jpeg","Stim\r09y07g06b09.jpeg",10,9,2,7,36,6,5,9,2,-1,0,1,0,1,0,5.521,9.827,0,13.074,1,"rød","10_12",-1,0,1,1,"Right_lead","Female","Female","surrender",NA,NA,NA,NA,2,1,-0.169106025888688,-1.03204944184868,0.5,-0.5
"136","12_1",10,"10_1",10,"10",12,"Female","Female",26,24,"Stim\r09y17g32b21.jpeg","Stim\r10y37g07b02.jpeg",9,10,17,37,32,7,21,2,2,-3,-1,0,1,0,0,4.776,1.99,13.944,0,1,"rød","10_12",1,0,1,0,"Left_lead","Female","Female","surrender",0.22730332161373,0.227341622727415,0.999831526170943,-0.000168473829057381,2,3,-0.169106025888688,1.19082627905617,0.666666666666667,-0.333333333333333
"137","12_1",14,"10_1",14,"10",12,"Female","Female",26,24,"Stim\r12y07g07b17.jpeg","Stim\r08y23g10b29.jpeg",12,8,7,23,7,10,17,29,2,-2,1,0,0,1,0,1.295,2.473,3.564,0,1,"rød","10_12",-4,0,1,1,"Left_lead","Female","Female","stick",0.219665132065155,0.216297207097015,1.01557082041577,0.015570820415769,2,2,-0.169106025888688,0.0793884186037444,1,0
"138","12_1",15,"10_1",15,"10",12,"Female","Female",26,24,"Stim\r22y35g09b11.jpeg","Stim\r21y03g15b37.jpeg",22,21,35,3,9,15,11,37,2,-4,-1,0,0,1,1,1.439,1.437,2.497,0,1,"rød","10_12",-1,0,1,0,"Left_lead","Female","Female","surrender",0.2358109664365,0.226717093105575,1.04011110590012,0.0401111059001196,2,4,-0.169106025888688,2.30226413950859,0.5,-0.5
"139","12_1",19,"10_1",19,"10",12,"Female","Female",26,24,"Stim\r06y19g29b08.jpeg","Stim\r05y09g02b34.jpeg",6,5,19,9,29,2,8,34,1,-2,0,-1,0,1,1,1.589,2.853,0,6.282,1,"rød","10_12",-1,0,1,0,"Right_lead","Female","Female","stick",0.22231950675431,0.2382233446047,1.07153595328891,0.0715359532889106,1,2,-1.11609977086534,0.0793884186037444,2,1
"140","12_1",25,"10_1",25,"10",12,"Female","Female",26,24,"Stim\r08y12g20b03.jpeg","Stim\r07y02g03b06.jpeg",8,7,12,2,20,3,3,6,2,-3,0,-1,0,1,1,2.541,1.121,0,3.913,1,"rød","10_12",-1,0,1,0,"Right_lead","Female","Female","stick",0.26268545448693,0.271360215595275,1.03302337818928,0.033023378189281,2,3,-0.169106025888688,1.19082627905617,1.5,0.5
"141","12_1",30,"10_1",30,"10",12,"Female","Female",26,24,"Stim\r16y09g06b10.jpeg","Stim\r18y13g28b06.jpeg",16,18,9,13,6,28,10,6,2,-2,0,1,0,1,0,1.309,2.74,0,5.699,1,"blå","10_12",-4,0,1,1,"Right_lead","Female","Female","surrender",0.239384532948225,0.2404097108742,1.00428255707814,0.00428255707814129,2,2,-0.169106025888688,0.0793884186037444,1,0
"142","12_1",31,"10_1",31,"10",12,"Female","Female",26,24,"Stim\r17y20g40b07.jpeg","Stim\r21y24g16b04.jpeg",17,21,20,24,40,16,7,4,1,-2,-1,0,0,1,1,2.064,1.812,3.281,0,1,"blå","10_12",-3,0,1,0,"Left_lead","Female","Female","surrender",0.2402016652078,0.224152875491085,1.07159751879852,0.0715975187985187,1,2,-1.11609977086534,0.0793884186037444,0.5,-0.5
"143","12_1",33,"10_1",33,"10",12,"Female","Female",26,24,"Stim\r04y16g13b13.jpeg","Stim\r14y10g15b15.jpeg",4,14,16,10,13,15,13,15,4,-2,1,0,1,0,1,1.515,2.71,1.391,0,1,"blå","10_12",2,0,1,1,"Left_lead","Female","Female","stick",0.223474098220866,0.221644690736835,1.0082537843697,0.00825378436970148,4,2,1.72488146406462,0.0793884186037444,2,1
"144","12_1",36,"10_1",36,"10",12,"Female","Female",26,24,"Stim\r21y24g16b04.jpeg","Stim\r09y02g05b02.jpeg",21,9,24,2,16,5,4,2,4,-1,1,0,0,1,0,1.376,2.016,1.298,0,1,"blå","10_12",-2,0,1,1,"Left_lead","Female","Female","stick",0.1647418479042,0.161739477079514,1.01856300563659,0.0185630056365891,4,1,1.72488146406462,-1.03204944184868,4,3
"145","12_1",40,"10_1",40,"10",12,"Female","Female",26,24,"Stim\r19y15g35b05.jpeg","Stim\r08y12g20b03.jpeg",19,8,15,12,35,20,5,3,1,-1,-1,0,0,1,1,5.523,1.879,1.709,0,1,"blå","10_12",-2,0,1,0,"Left_lead","Female","Female","surrender",0.154944642152378,0.16181799312547,0.957524186029408,-0.042475813970592,1,1,-1.11609977086534,-1.03204944184868,1,0
"146","12_1",42,"10_1",42,"10",12,"Female","Female",26,24,"Stim\r04y28g27b06.jpeg","Stim\r10y03g03b07.jpeg",4,10,28,3,27,3,6,7,4,-1,1,0,1,0,1,1.446,1.895,3.406,0,1,"blå","10_12",1,0,1,1,"Left_lead","Female","Female","stick",0.15695988422013,0.1735956479369,0.904169465568533,-0.0958305344314675,4,1,1.72488146406462,-1.03204944184868,4,3
"147","12_1",45,"10_1",45,"10",12,"Female","Female",26,24,"Stim\r08y23g10b29.jpeg","Stim\r07y14g27b22.jpeg",8,7,23,14,10,27,29,22,3,-2,-1,0,0,1,1,1.161,1.125,2.392,0,1,"blå","10_12",-7,0,1,0,"Left_lead","Female","Female","surrender",0.183591896264085,0.20549069857721,0.893431661555733,-0.106568338444267,3,2,0.777887719087967,0.0793884186037444,1.5,0.5
"148","12_1",49,"10_1",49,"10",12,"Female","Female",26,24,"Stim\r10y13g07b36.jpeg","Stim\r09y06g26b32.jpeg",10,9,13,6,7,26,36,32,4,-4,0,1,0,1,0,1.684,1.548,0,11.35,1,"blå","10_12",-4,0,1,1,"Right_lead","Female","Female","surrender",0.159045746818599,0.20099741282781,1.2637710649192,0.263771064919198,4,4,1.72488146406462,2.30226413950859,1,0
"149","12_1",5,"10_1",5,"10",12,"Female","Female",26,24,"Stim\r12y07g16b25.jpeg","Stim\r09y02g05b02.jpeg",12,9,7,2,16,5,25,2,3,-2,0,1,0,1,0,1.628,1.942,0,9.918,1,"rød","10_12",-3,0,1,1,"Right_lead","Female","Female","surrender",NA,NA,NA,NA,3,2,0.777887719087967,0.0793884186037444,0.666666666666667,-0.333333333333333
"150","12_1",57,"10_1",57,"10",12,"Female","Female",26,24,"Stim\r08y23g10b29.jpeg","Stim\r10y27g22b14.jpeg",8,10,23,27,10,22,29,14,3,-1,0,1,1,0,1,1.274,1.671,0,3.096,1,"gul","10_12",4,0,1,1,"Right_lead","Female","Female","surrender",0.16912992025086,0.171601537199907,1.01461371793578,0.0146137179357799,3,1,0.777887719087967,-1.03204944184868,0.333333333333333,-0.666666666666667
"151","12_1",62,"10_1",62,"10",12,"Female","Female",26,24,"Stim\r14y12g04b29.jpeg","Stim\r18y13g28b06.jpeg",14,18,12,13,4,28,29,6,-2,3,0,1,0,1,1,0.982,1.48,0,4.282,1,"gul","10_12",1,1,0,1,"Right_lead","Female","Female","stick",0.205779477455125,0.21981994331935,1.0682306420342,0.0682306420341983,2,3,-0.169106025888688,1.19082627905617,1.5,0.5
"152","12_1",64,"10_1",64,"10",12,"Female","Female",26,24,"Stim\r03y06g12b09.jpeg","Stim\r10y03g03b07.jpeg",3,10,6,3,12,3,9,7,2,-2,-1,0,0,1,1,0.854,1.219,1.471,0,1,"gul","10_12",-3,0,1,0,"Left_lead","Female","Female","surrender",0.21389911035485,0.2439495007722,0.876817167806336,-0.123182832193664,2,2,-0.169106025888688,0.0793884186037444,1,0
"153","12_1",67,"10_1",67,"10",12,"Female","Female",26,24,"Stim\r06y19g29b08.jpeg","Stim\r14y20g16b10.jpeg",6,14,19,20,29,16,8,10,-1,2,1,0,0,1,1,1.934,0.847,2.474,0,1,"gul","10_12",1,1,0,1,"Left_lead","Female","Female","surrender",0.229391939963369,0.249447667469255,0.919599458638522,-0.0804005413614778,1,2,-1.11609977086534,0.0793884186037444,0.5,-0.5
"154","12_1",7,"10_1",7,"10",12,"Female","Female",26,24,"Stim\r22y23g20b06.jpeg","Stim\r16y21g04b04.jpeg",22,16,23,21,20,4,6,4,3,-3,0,-1,0,1,1,2.329,1.93,0,3.411,1,"rød","10_12",-6,0,1,0,"Right_lead","Female","Female","stick",NA,NA,NA,NA,3,3,0.777887719087967,1.19082627905617,1,0
"155","12_1",73,"10_1",73,"10",12,"Female","Female",26,24,"Stim\r22y02g34b05.jpeg","Stim\r10y03g03b07.jpeg",22,10,2,3,34,3,5,7,3,-1,1,0,1,0,1,1.066,1.178,0.983,0,1,"gul","10_12",1,0,1,1,"Left_lead","Female","Female","stick",0.210036206381183,0.206838045087932,1.01546215200347,0.0154621520034739,3,1,0.777887719087967,-1.03204944184868,3,2
"156","12_1",80,"10_1",80,"10",12,"Female","Female",26,24,"Stim\r11y26g25b38.jpeg","Stim\r11y13g22b35.jpeg",11,11,26,13,25,22,38,35,-2,2,1,0,1,0,0,0.873,1.521,2.12,0,1,"grøn","10_12",-3,1,0,1,"Left_lead","Female","Female","surrender",0.195972337031256,0.191889044743035,1.02127944455448,0.0212794445544771,2,2,-0.169106025888688,0.0793884186037444,1,0
"157","12_1",84,"10_1",84,"10",12,"Female","Female",26,24,"Stim\r04y16g13b13.jpeg","Stim\r08y23g10b29.jpeg",4,8,16,23,13,10,13,29,3,-2,0,1,0,1,0,1.109,1.205,0,2.13,1,"grøn","10_12",-3,0,1,1,"Right_lead","Female","Female","surrender",0.20572908016587,0.19456003158815,0.945709918263792,-0.0542900817362081,3,2,0.777887719087967,0.0793884186037444,0.666666666666667,-0.333333333333333
"158","12_1",85,"10_1",85,"10",12,"Female","Female",26,24,"Stim\r21y24g16b04.jpeg","Stim\r15y16g12b03.jpeg",21,15,24,16,16,12,4,3,-1,1,1,0,1,0,0,0.991,1.406,1.275,0,1,"grøn","10_12",-4,1,0,1,"Left_lead","Female","Female","surrender",0.186046247733005,0.176539852462401,1.05384843783433,0.0538484378343334,1,1,-1.11609977086534,-1.03204944184868,1,0
"159","12_1",92,"10_1",92,"10",12,"Female","Female",26,24,"Stim\r13y33g08b23.jpeg","Stim\r17y07g07b24.jpeg",13,17,33,7,8,7,23,24,1,-2,0,-1,0,1,1,1.288,0.969,0,2.683,1,"grøn","10_12",-1,0,1,0,"Right_lead","Female","Female","stick",0.283076505144635,0.2483605057126,0.87736177746614,-0.12263822253386,1,2,-1.11609977086534,0.0793884186037444,2,1
"160","12_1",93,"10_1",93,"10",12,"Female","Female",26,24,"Stim\r14y08g21b39.jpeg","Stim\r03y06g12b09.jpeg",14,3,8,6,21,12,39,9,-1,1,1,0,1,0,0,0.926,1.57,5.309,0,1,"grøn","10_12",-9,1,0,1,"Left_lead","Female","Female","surrender",0.30002074331905,0.24746206958415,1.21239082750428,0.212390827504283,1,1,-1.11609977086534,-1.03204944184868,1,0
"161","12_1",94,"10_1",94,"10",12,"Female","Female",26,24,"Stim\r09y02g05b02.jpeg","Stim\r03y11g01b26.jpeg",9,3,2,11,5,1,2,26,-1,1,0,-1,1,0,1,1.94,1.087,0,3.98,1,"grøn","10_12",-4,1,0,0,"Right_lead","Female","Female","surrender",0.29479050841175,0.245810599491445,0.833848419393843,-0.166151580606157,1,1,-1.11609977086534,-1.03204944184868,1,0
"162","12_1",95,"10_1",95,"10",12,"Female","Female",26,24,"Stim\r10y13g07b36.jpeg","Stim\r16y21g04b04.jpeg",10,16,13,21,7,4,36,4,-1,1,1,0,1,0,0,1.031,1.844,1.856,0,1,"grøn","10_12",-3,1,0,1,"Left_lead","Female","Female","surrender",0.304534459454791,0.269098034500305,1.13168593007485,0.131685930074847,1,1,-1.11609977086534,-1.03204944184868,1,0
"163","14_1",18,"13_1",18,"13",14,"Male","Female",23,25,"Stim\r18y13g28b06.jpeg","Stim\r12y07g16b25.jpeg",18,12,13,7,28,16,6,25,2,-2,1,0,0,1,0,2.298,1.469,2.879,0,1,"rød","13_14",-6,0,1,1,"Left_lead","Male","Female","stick",0.25378152270695,0.249472562168155,1.01727228237585,0.0172722823758493,2,2,0.174728902734291,0.514016039001138,1,0
"164","14_1",19,"13_1",19,"13",14,"Male","Female",23,25,"Stim\r10y07g11b10.jpeg","Stim\r09y15g18b07.jpeg",10,9,7,15,11,18,10,7,-1,1,1,0,1,0,0,2.529,1.738,8.43,0,1,"rød","13_14",-1,1,0,1,"Left_lead","Male","Female","surrender",0.255532202763835,0.2441203463879,1.04674684656478,0.0467468465647753,1,1,-1.09205564208932,-1.14225786444697,1,0
"165","14_1",2,"13_1",2,"13",14,"Male","Female",23,25,"Stim\r14y20g16b10.jpeg","Stim\r16y21g04b04.jpeg",14,16,20,21,16,4,10,4,-2,2,0,-1,0,1,0,4.215,3.494,0,8.333,1,"rød","13_14",2,1,0,0,"Right_lead","Female","Male","surrender",NA,NA,NA,NA,2,2,0.174728902734291,0.514016039001138,1,0
"166","14_1",23,"13_1",23,"13",14,"Male","Female",23,25,"Stim\r13y21g23b09.jpeg","Stim\r12y07g16b25.jpeg",13,12,21,7,23,16,9,25,3,-3,0,-1,0,1,1,1.763,1.492,0,7.612,1,"rød","13_14",-1,0,1,0,"Right_lead","Female","Male","stick",0.25253460184501,0.25799696133361,1.02163014275546,0.0216301427554568,3,3,1.4415134475579,2.17028994244925,1,0
"167","14_1",24,"13_1",24,"13",14,"Male","Female",23,25,"Stim\r10y37g07b02.jpeg","Stim\r13y21g23b09.jpeg",10,13,37,21,7,23,2,9,-1,2,0,1,0,1,1,2.93,2.909,0,6.117,1,"rød","13_14",3,1,0,1,"Right_lead","Female","Male","stick",0.252594313607145,0.2635779606367,1.04348335032845,0.0434833503284546,1,2,-1.09205564208932,0.514016039001138,2,1
"168","14_1",26,"13_1",26,"13",14,"Male","Female",23,25,"Stim\r04y28g27b06.jpeg","Stim\r10y27g22b14.jpeg",4,10,28,27,27,22,6,14,2,-3,-1,0,1,0,0,1.258,1.754,4.536,0,1,"blå","13_14",8,0,1,0,"Left_lead","Male","Female","surrender",0.262600601139467,0.26562777199065,0.988603711018253,-0.0113962889817469,2,3,0.174728902734291,2.17028994244925,0.666666666666667,-0.333333333333333
"169","14_1",32,"13_1",32,"13",14,"Male","Female",23,25,"Stim\r10y27g22b14.jpeg","Stim\r12y09g30b18.jpeg",10,12,27,9,22,30,14,18,-2,2,0,1,0,1,1,1.989,1.285,0,4.834,1,"blå","13_14",4,1,0,1,"Right_lead","Female","Male","stick",0.209384923744,0.228381606043295,1.09072612277721,0.0907261227772105,2,2,0.174728902734291,0.514016039001138,1,0
"170","14_1",33,"13_1",33,"13",14,"Male","Female",23,25,"Stim\r18y19g14b27.jpeg","Stim\r05y28g23b30.jpeg",18,5,19,28,14,23,27,30,2,-1,-1,0,1,0,0,3.325,2.952,3.016,0,1,"blå","13_14",3,0,1,0,"Left_lead","Male","Female","surrender",0.20043911294902,0.220869422849972,0.907500505786039,-0.0924994942139614,2,1,0.174728902734291,-1.14225786444697,2,1
"171","14_1",37,"13_1",37,"13",14,"Male","Female",23,25,"Stim\r09y07g06b09.jpeg","Stim\r22y35g09b11.jpeg",9,22,7,35,6,9,9,11,-2,2,-1,0,0,1,0,1.871,1.484,2.843,0,1,"blå","13_14",2,1,0,0,"Left_lead","Male","Female","stick",0.153182041517949,0.164264688602302,0.932531774304915,-0.0674682256950851,2,2,0.174728902734291,0.514016039001138,1,0
"172","14_1",39,"13_1",39,"13",14,"Male","Female",23,25,"Stim\r12y09g30b18.jpeg","Stim\r09y17g32b21.jpeg",12,9,9,17,30,32,18,21,2,-2,1,0,1,0,1,1.171,1.569,3.171,0,1,"blå","13_14",3,0,1,1,"Left_lead","Male","Female","stick",0.143158131700781,0.15431570264392,0.927696464118854,-0.0723035358811464,2,2,0.174728902734291,0.514016039001138,1,0
"173","14_1",40,"13_1",40,"13",14,"Male","Female",23,25,"Stim\r15y16g12b03.jpeg","Stim\r22y23g20b06.jpeg",15,22,16,23,12,20,3,6,1,-1,0,1,1,0,1,2.078,1.308,0,4.612,1,"blå","13_14",3,0,1,1,"Right_lead","Female","Male","surrender",0.155305525934462,0.16285616294285,1.04861795459599,0.0486179545959897,1,1,-1.09205564208932,-1.14225786444697,1,0
"174","14_1",41,"13_1",41,"13",14,"Male","Female",23,25,"Stim\r17y11g38b07.jpeg","Stim\r06y19g29b08.jpeg",17,6,11,19,38,29,7,8,1,-1,0,1,1,0,1,6.864,1.567,0,4.736,1,"blå","13_14",1,0,1,1,"Right_lead","Female","Male","surrender",0.15747782188911,0.16931895588146,1.07519239122248,0.0751923912224801,1,1,-1.09205564208932,-1.14225786444697,1,0
"175","14_1",42,"13_1",42,"13",14,"Male","Female",23,25,"Stim\r21y01g04b27.jpeg","Stim\r15y17g24b30.jpeg",21,15,1,17,4,24,27,30,1,-2,0,-1,1,0,0,2.188,1.182,0,3.628,1,"blå","13_14",3,0,1,0,"Right_lead","Female","Male","stick",0.152546980814775,0.183471851916835,1.20272358677232,0.202723586772323,1,2,-1.09205564208932,0.514016039001138,2,1
"176","14_1",47,"13_1",47,"13",14,"Male","Female",23,25,"Stim\r09y06g26b32.jpeg","Stim\r05y28g23b30.jpeg",9,5,6,28,26,23,32,30,-2,2,0,1,1,0,0,2.39,2.669,0,2.252,1,"blå","13_14",-2,1,0,1,"Right_lead","Female","Male","stick",0.1851399108445,0.216820106001746,1.17111488826337,0.171114888263365,2,2,0.174728902734291,0.514016039001138,1,0
"177","14_1",48,"13_1",48,"13",14,"Male","Female",23,25,"Stim\r11y14g08b23.jpeg","Stim\r12y12g14b26.jpeg",11,12,14,12,8,14,23,26,3,-2,1,0,1,0,1,5.236,1.548,4.186,0,1,"blå","13_14",3,0,1,1,"Left_lead","Male","Female","stick",0.18703928541737,0.2135126349981,0.876010384205293,-0.123989615794707,3,2,1.4415134475579,0.514016039001138,1.5,0.5
"178","14_1",49,"13_1",49,"13",14,"Male","Female",23,25,"Stim\r03y06g12b09.jpeg","Stim\r22y35g09b11.jpeg",3,22,6,35,12,9,9,11,2,-1,0,1,1,0,1,2.471,1.399,0,2.227,1,"blå","13_14",2,0,1,1,"Right_lead","Female","Male","surrender",0.18297487906675,0.206869731464475,1.13059089050693,0.130590890506932,2,1,0.174728902734291,-1.14225786444697,0.5,-0.5
"179","14_1",51,"13_1",51,"13",14,"Male","Female",23,25,"Stim\r12y07g16b25.jpeg","Stim\r03y06g12b09.jpeg",12,3,7,6,16,12,25,9,3,-2,0,-1,0,1,1,2.664,1.509,0,2.332,1,"gul","13_14",-1,0,1,0,"Right_lead","Female","Male","stick",0.1810938928617,0.205349955107745,1.1339419119151,0.133941911915104,3,2,1.4415134475579,0.514016039001138,0.666666666666667,-0.333333333333333
"180","14_1",53,"13_1",53,"13",14,"Male","Female",23,25,"Stim\r18y19g14b27.jpeg","Stim\r08y23g10b29.jpeg",18,8,19,23,14,10,27,29,-1,2,1,0,0,1,1,1.731,2.31,1.489,0,1,"gul","13_14",4,1,0,1,"Left_lead","Male","Female","surrender",0.183191743610785,0.191809889899035,0.955069333011001,-0.0449306669889985,1,2,-1.09205564208932,0.514016039001138,0.5,-0.5
"181","14_1",56,"13_1",56,"13",14,"Male","Female",23,25,"Stim\r16y09g06b10.jpeg","Stim\r09y07g06b09.jpeg",16,9,9,7,6,6,10,9,-1,2,0,1,1,0,0,2.831,1.127,0,2.725,1,"gul","13_14",-2,1,0,1,"Right_lead","Female","Male","stick",0.178028438812285,0.180795798222992,1.01554447946165,0.0155444794616491,1,2,-1.09205564208932,0.514016039001138,2,1
"182","14_1",63,"13_1",63,"13",14,"Male","Female",23,25,"Stim\r13y21g23b09.jpeg","Stim\r18y19g14b27.jpeg",13,18,21,19,23,14,9,27,-4,1,-1,0,1,0,1,1.667,0.863,1.729,0,1,"gul","13_14",-2,1,0,0,"Left_lead","Male","Female","stick",0.243506759142025,0.23218593866025,1.04875756278394,0.0487575627839392,4,1,2.7082979923815,-1.14225786444697,4,3
"183","14_1",66,"13_1",66,"13",14,"Male","Female",23,25,"Stim\r09y07g06b09.jpeg","Stim\r07y14g27b22.jpeg",9,7,7,14,6,27,9,22,2,-2,-1,0,1,0,0,2.58,1.909,2.195,0,1,"gul","13_14",7,0,1,0,"Left_lead","Male","Female","surrender",0.226842472932735,0.223506794757705,1.01492428084187,0.0149242808418693,2,2,0.174728902734291,0.514016039001138,1,0
"184","14_1",67,"13_1",67,"13",14,"Male","Female",23,25,"Stim\r07y14g27b22.jpeg","Stim\r11y13g22b35.jpeg",7,11,14,13,27,22,22,35,-1,1,-1,0,1,0,1,1.127,1.223,1.243,0,1,"gul","13_14",-1,1,0,0,"Left_lead","Male","Female","stick",0.248510488803805,0.25020377168575,0.993232384665761,-0.00676761533423931,1,1,-1.09205564208932,-1.14225786444697,1,0
"185","14_1",69,"13_1",69,"13",14,"Male","Female",23,25,"Stim\r17y22g16b15.jpeg","Stim\r14y20g16b10.jpeg",17,14,22,20,16,16,15,10,-3,2,0,-1,1,0,1,1.526,1.006,0,3.112,1,"gul","13_14",-2,1,0,0,"Right_lead","Female","Male","surrender",0.21814784966545,0.22602848870325,1.03612521989048,0.0361252198904811,3,2,1.4415134475579,0.514016039001138,0.666666666666667,-0.333333333333333
"186","14_1",7,"13_1",7,"13",14,"Male","Female",23,25,"Stim\r03y06g12b09.jpeg","Stim\r07y02g03b06.jpeg",3,7,6,2,12,3,9,6,1,-2,-1,0,1,0,0,3.281,2.461,6.032,0,1,"rød","13_14",4,0,1,0,"Left_lead","Male","Female","surrender",NA,NA,NA,NA,1,2,-1.09205564208932,0.514016039001138,0.5,-0.5
"187","14_1",70,"13_1",70,"13",14,"Male","Female",23,25,"Stim\r21y03g15b37.jpeg","Stim\r03y11g01b26.jpeg",21,3,3,11,15,1,37,26,2,-1,1,0,1,0,1,4.022,1.744,2.412,0,1,"gul","13_14",8,0,1,1,"Left_lead","Male","Female","stick",0.212790196525405,0.222382512004825,0.956865693291513,-0.0431343067084874,2,1,0.174728902734291,-1.14225786444697,2,1
"188","14_1",71,"13_1",71,"13",14,"Male","Female",23,25,"Stim\r11y26g25b38.jpeg","Stim\r05y28g23b30.jpeg",11,5,26,28,25,23,38,30,-2,1,-1,0,0,1,0,1.303,1.943,1.113,0,1,"gul","13_14",2,1,0,0,"Left_lead","Male","Female","stick",0.212472051743515,0.22035058563028,0.964245459733045,-0.0357545402669552,2,1,0.174728902734291,-1.14225786444697,2,1
"189","14_1",75,"13_1",75,"13",14,"Male","Female",23,25,"Stim\r12y12g14b26.jpeg","Stim\r15y16g12b03.jpeg",12,15,12,16,14,12,26,3,-2,1,0,-1,1,0,1,2.029,0.974,0,4.346,1,"grøn","13_14",-2,1,0,0,"Right_lead","Female","Male","surrender",0.207351562871869,0.21125571873345,1.01882867824822,0.018828678248225,2,1,0.174728902734291,-1.14225786444697,0.5,-0.5
"190","14_1",77,"13_1",77,"13",14,"Male","Female",23,25,"Stim\r14y12g04b29.jpeg","Stim\r12y07g07b17.jpeg",14,12,12,7,4,7,29,17,1,-1,0,-1,1,0,0,1.311,1.407,0,3.642,1,"grøn","13_14",3,0,1,0,"Right_lead","Female","Male","stick",0.184522990519825,0.18778470158932,1.01767644812338,0.0176764481233822,1,1,-1.09205564208932,-1.14225786444697,1,0
"191","14_1",89,"13_1",89,"13",14,"Male","Female",23,25,"Stim\r17y22g16b15.jpeg","Stim\r09y15g18b07.jpeg",17,9,22,15,16,18,15,7,2,-2,0,1,1,0,1,2.062,1.306,0,2.071,1,"grøn","13_14",2,0,1,1,"Right_lead","Female","Male","surrender",0.275950042641785,0.2510561918547,0.909788559737966,-0.0902114402620335,2,2,0.174728902734291,0.514016039001138,1,0
"192","15_2",1,"13_2",1,"13",15,"Male","Male",23,20,"Stim\r08y12g20b03.jpeg","Stim\r10y37g07b02.jpeg",8,10,12,37,20,7,3,2,-1,2,0,1,0,1,1,1.369,5.818,0,2.19,2,"rød","13_15",2,1,0,1,"Right_lead","Male","Male","stick",NA,NA,NA,NA,1,2,-1.46427699060242,-0.445023402515898,2,1
"193","15_2",14,"13_2",14,"13",15,"Male","Male",23,20,"Stim\r18y19g14b27.jpeg","Stim\r10y03g03b07.jpeg",18,10,19,3,14,3,27,7,2,-2,1,0,0,1,0,2.281,2.061,5.082,0,2,"rød","13_15",-8,0,1,1,"Left_lead","Male","Male","stick",0.230976498229291,0.223189211664059,1.03489096317502,0.0348909631750181,2,2,-0.306476579428413,-0.445023402515898,1,0
"194","15_2",18,"13_2",18,"13",15,"Male","Male",23,20,"Stim\r12y12g14b26.jpeg","Stim\r08y12g20b03.jpeg",12,8,12,12,14,20,26,3,-2,3,1,0,1,0,0,2.349,1.345,1.034,0,2,"rød","13_15",-4,1,0,1,"Left_lead","Male","Male","surrender",0.268105820909757,0.2506363063918,1.06970065418475,0.0697006541847462,2,3,-0.306476579428413,0.930503477987786,0.666666666666667,-0.333333333333333
"195","15_2",19,"13_2",19,"13",15,"Male","Male",23,20,"Stim\r17y20g40b07.jpeg","Stim\r16y09g06b10.jpeg",17,16,20,9,40,6,7,10,-2,2,0,-1,1,0,1,1.19,1.602,0,3.355,2,"rød","13_15",-1,1,0,0,"Right_lead","Male","Male","surrender",0.2547343996257,0.2438668941684,0.957337895968238,-0.0426621040317618,2,2,-0.306476579428413,-0.445023402515898,1,0
"196","15_2",2,"13_2",2,"13",15,"Male","Male",23,20,"Stim\r11y13g22b35.jpeg","Stim\r09y07g06b09.jpeg",11,9,13,7,22,6,35,9,1,-3,-1,0,0,1,1,2.324,2.1,1.507,0,2,"rød","13_15",-2,0,1,0,"Left_lead","Male","Male","surrender",NA,NA,NA,NA,1,3,-1.46427699060242,0.930503477987786,0.333333333333333,-0.666666666666667
"197","15_2",28,"13_2",28,"13",15,"Male","Male",23,20,"Stim\r20y14g02b19.jpeg","Stim\r14y10g15b15.jpeg",20,14,14,10,2,15,19,15,2,-2,-1,0,0,1,1,1.05,1.207,1.782,0,2,"blå","13_15",-4,0,1,0,"Left_lead","Male","Male","surrender",0.250209770347388,0.247423125990854,1.01126266732495,0.0112626673249492,2,2,-0.306476579428413,-0.445023402515898,1,0
"198","15_2",30,"13_2",30,"13",15,"Male","Male",23,20,"Stim\r17y11g38b07.jpeg","Stim\r10y02g36b05.jpeg",17,10,11,2,38,36,7,5,-3,2,0,-1,1,0,1,1.836,2.132,0,1.224,2,"blå","13_15",-2,1,0,0,"Right_lead","Male","Male","surrender",0.244056477712665,0.234121576757185,0.95929261518239,-0.0407073848176104,3,2,0.851323831745592,-0.445023402515898,0.666666666666667,-0.333333333333333
"199","15_2",32,"13_2",32,"13",15,"Male","Male",23,20,"Stim\r10y03g03b07.jpeg","Stim\r03y03g02b05.jpeg",10,3,3,3,3,2,7,5,2,-2,-1,0,0,1,1,1.808,3.471,4.164,0,2,"blå","13_15",-2,0,1,0,"Left_lead","Male","Male","surrender",0.25567938654825,0.22750119028305,1.12385955532866,0.123859555328663,2,2,-0.306476579428413,-0.445023402515898,1,0
"200","15_2",36,"13_2",36,"13",15,"Male","Male",23,20,"Stim\r22y02g34b05.jpeg","Stim\r10y27g22b14.jpeg",22,10,2,27,34,22,5,14,2,-2,0,1,1,0,1,1.42,2.496,0,1.27,2,"blå","13_15",9,0,1,1,"Right_lead","Male","Male","surrender",0.154819076254283,0.162742152662954,1.05117635759341,0.0511763575934125,2,2,-0.306476579428413,-0.445023402515898,1,0
"201","15_2",39,"13_2",39,"13",15,"Male","Male",23,20,"Stim\r21y01g04b27.jpeg","Stim\r17y07g07b24.jpeg",21,17,1,7,4,7,27,24,-4,2,-1,0,1,0,1,1.68,1.776,1.655,0,2,"blå","13_15",-3,1,0,0,"Left_lead","Male","Male","stick",0.149446171101653,0.150363279666455,0.993900714543894,-0.00609928545610583,4,2,2.0091242429196,-0.445023402515898,2,1
"202","15_2",40,"13_2",40,"13",15,"Male","Male",23,20,"Stim\r02y10g14b11.jpeg","Stim\r20y14g02b19.jpeg",2,20,10,14,14,2,11,19,-4,3,0,1,0,1,1,2.308,1.278,0,1.516,2,"blå","13_15",8,1,0,1,"Right_lead","Male","Male","stick",0.152957961899166,0.157179775477933,1.02760113645833,0.0276011364583304,4,3,2.0091242429196,0.930503477987786,0.75,-0.25
"203","15_2",42,"13_2",42,"13",15,"Male","Male",23,20,"Stim\r01y27g01b01.jpeg","Stim\r09y02g05b02.jpeg",1,9,27,2,1,5,1,2,4,-2,0,1,1,0,1,2.187,1.55,0,0.929,2,"blå","13_15",1,0,1,1,"Right_lead","Male","Male","surrender",0.150280439230305,0.1616640124669,1.07574886854802,0.0757488685480192,4,2,2.0091242429196,-0.445023402515898,0.5,-0.5
"204","15_2",43,"13_2",43,"13",15,"Male","Male",23,20,"Stim\r22y23g20b06.jpeg","Stim\r08y12g20b03.jpeg",22,8,23,12,20,20,6,3,1,-1,0,-1,0,1,1,1.314,0.884,0,1.693,2,"blå","13_15",-3,0,1,0,"Right_lead","Male","Male","stick",0.148361764763295,0.1600060794261,1.0784859541229,0.0784859541229039,1,1,-1.46427699060242,-1.82055028301958,1,0
"205","15_2",45,"13_2",45,"13",15,"Male","Male",23,20,"Stim\r12y07g07b17.jpeg","Stim\r13y33g08b23.jpeg",12,13,7,33,7,8,17,23,2,-3,-1,0,1,0,0,1.853,1.368,1.425,0,2,"blå","13_15",6,0,1,0,"Left_lead","Male","Male","surrender",0.162444299910205,0.198675620859465,0.817635798531675,-0.182364201468325,2,3,-0.306476579428413,0.930503477987786,0.666666666666667,-0.333333333333333
"206","15_2",46,"13_2",46,"13",15,"Male","Male",23,20,"Stim\r16y09g06b10.jpeg","Stim\r06y36g16b14.jpeg",16,6,9,36,6,16,10,14,4,-3,1,0,1,0,1,1.529,2.109,1.574,0,2,"blå","13_15",4,0,1,1,"Left_lead","Male","Male","stick",0.1783140077395,0.20464932701625,0.871314899195056,-0.128685100804944,4,3,2.0091242429196,0.930503477987786,1.33333333333333,0.333333333333333
"207","15_2",49,"13_2",49,"13",15,"Male","Male",23,20,"Stim\r12y09g30b18.jpeg","Stim\r12y07g07b17.jpeg",12,12,9,7,30,7,18,17,-1,2,1,0,1,0,0,2.475,1.07,1.122,0,2,"gul","13_15",-2,1,0,1,"Left_lead","Male","Male","surrender",0.1677730674637,0.1892168871084,0.886670687947556,-0.113329312052444,1,2,-1.46427699060242,-0.445023402515898,0.5,-0.5
"208","15_2",55,"13_2",55,"13",15,"Male","Male",23,20,"Stim\r15y05g12b10.jpeg","Stim\r09y06g26b32.jpeg",15,9,5,6,12,26,10,32,-2,2,0,-1,0,1,0,1.68,3.125,0,1.136,2,"gul","13_15",1,1,0,0,"Right_lead","Male","Male","surrender",0.18329774665105,0.178165672724925,0.972001434715425,-0.0279985652845754,2,2,-0.306476579428413,-0.445023402515898,1,0
"209","15_2",6,"13_2",6,"13",15,"Male","Male",23,20,"Stim\r15y16g12b03.jpeg","Stim\r18y19g14b27.jpeg",15,18,16,19,12,14,3,27,-3,3,1,0,0,1,1,1.414,1.327,1.397,0,2,"rød","13_15",3,1,0,1,"Left_lead","Male","Male","surrender",NA,NA,NA,NA,3,3,0.851323831745592,0.930503477987786,1,0
"210","15_2",65,"13_2",65,"13",15,"Male","Male",23,20,"Stim\r06y14g31b25.jpeg","Stim\r19y10g06b15.jpeg",6,19,14,10,31,6,25,15,-2,3,0,1,1,0,0,1.336,1.415,0,1.558,2,"gul","13_15",-4,1,0,1,"Right_lead","Male","Male","stick",0.206520377683105,0.214090434185225,1.03665525207268,0.0366552520726835,2,3,-0.306476579428413,0.930503477987786,1.5,0.5
"211","15_2",66,"13_2",66,"13",15,"Male","Male",23,20,"Stim\r18y19g14b27.jpeg","Stim\r15y16g12b03.jpeg",18,15,19,16,14,12,27,3,-3,2,0,1,1,0,0,2.294,1.321,0,3.185,2,"gul","13_15",-3,1,0,1,"Right_lead","Male","Male","stick",0.2129819470928,0.2220780237867,1.04270820516979,0.0427082051697869,3,2,0.851323831745592,-0.445023402515898,0.666666666666667,-0.333333333333333
"212","15_2",67,"13_2",67,"13",15,"Male","Male",23,20,"Stim\r07y02g03b06.jpeg","Stim\r21y01g04b27.jpeg",7,21,2,1,3,4,6,27,2,-1,-1,0,0,1,1,3.598,2.388,1.773,0,2,"gul","13_15",-1,0,1,0,"Left_lead","Male","Male","surrender",0.26828948586941,0.24594410826105,1.09085551089779,0.0908555108977938,2,1,-0.306476579428413,-1.82055028301958,2,1
"213","15_2",72,"13_2",72,"13",15,"Male","Male",23,20,"Stim\r22y35g09b11.jpeg","Stim\r04y39g24b15.jpeg",22,4,35,39,9,24,11,15,-3,2,-1,0,0,1,0,1.343,1.255,1.297,0,2,"gul","13_15",4,1,0,0,"Left_lead","Male","Male","stick",0.218595810608335,0.21184108144495,1.03188583214036,0.0318858321403552,3,2,0.851323831745592,-0.445023402515898,1.5,0.5
"214","15_2",73,"13_2",73,"13",15,"Male","Male",23,20,"Stim\r14y12g04b29.jpeg","Stim\r01y27g01b01.jpeg",14,1,12,27,4,1,29,1,1,-3,-1,0,0,1,1,1.815,1.342,1.08,0,2,"grøn","13_15",-3,0,1,0,"Left_lead","Male","Male","surrender",0.21091583271563,0.20740043132674,1.01694982679834,0.0169498267983437,1,3,-1.46427699060242,0.930503477987786,0.333333333333333,-0.666666666666667
"215","15_2",75,"13_2",75,"13",15,"Male","Male",23,20,"Stim\r11y13g22b35.jpeg","Stim\r08y12g20b03.jpeg",11,8,13,12,22,20,35,3,-2,3,0,1,1,0,0,1.156,1.585,0,1.336,2,"grøn","13_15",-2,1,0,1,"Right_lead","Male","Male","stick",0.216531809700088,0.21235923937453,0.980729989134911,-0.0192700108650887,2,3,-0.306476579428413,0.930503477987786,1.5,0.5
"216","15_2",76,"13_2",76,"13",15,"Male","Male",23,20,"Stim\r12y07g16b25.jpeg","Stim\r21y03g15b37.jpeg",12,21,7,3,16,15,25,37,-3,1,0,-1,1,0,1,1.233,1.129,0,1.02,2,"grøn","13_15",-1,1,0,0,"Right_lead","Male","Male","surrender",0.213880919731714,0.207264405743145,0.969064496277328,-0.0309355037226722,3,1,0.851323831745592,-1.82055028301958,0.333333333333333,-0.666666666666667
"217","15_2",77,"13_2",77,"13",15,"Male","Male",23,20,"Stim\r04y28g27b06.jpeg","Stim\r09y15g18b07.jpeg",4,9,28,15,27,18,6,7,3,-3,-1,0,0,1,1,2.501,1.229,4.585,0,2,"grøn","13_15",-9,0,1,0,"Left_lead","Male","Male","surrender",0.193979943010465,0.190276788682831,1.01946193412906,0.0194619341290583,3,3,0.851323831745592,0.930503477987786,1,0
"218","15_2",78,"13_2",78,"13",15,"Male","Male",23,20,"Stim\r06y14g31b25.jpeg","Stim\r02y19g24b04.jpeg",6,2,14,19,31,24,25,4,-2,2,1,0,1,0,0,1.118,1.196,2.081,0,2,"grøn","13_15",-7,1,0,1,"Left_lead","Male","Male","surrender",0.194567589896607,0.19015112056047,1.0232261020767,0.0232261020767033,2,2,-0.306476579428413,-0.445023402515898,1,0
"219","15_2",79,"13_2",79,"13",15,"Male","Male",23,20,"Stim\r17y07g07b24.jpeg","Stim\r03y11g01b26.jpeg",17,3,7,11,7,1,24,26,-2,1,-1,0,1,0,1,1.126,2.044,2.503,0,2,"grøn","13_15",-6,1,0,0,"Left_lead","Male","Male","stick",0.195337212792,0.19073372734157,1.02413566554061,0.02413566554061,2,1,-0.306476579428413,-1.82055028301958,2,1
"220","15_2",8,"13_2",8,"13",15,"Male","Male",23,20,"Stim\r20y04g39b23.jpeg","Stim\r13y24g05b28.jpeg",20,13,4,24,39,5,23,28,-2,3,1,0,1,0,0,2.194,1.223,1.033,0,2,"rød","13_15",-7,1,0,1,"Left_lead","Male","Male","surrender",NA,NA,NA,NA,2,3,-0.306476579428413,0.930503477987786,0.666666666666667,-0.333333333333333
"221","15_2",83,"13_2",83,"13",15,"Male","Male",23,20,"Stim\r22y35g09b11.jpeg","Stim\r08y23g10b29.jpeg",22,8,35,23,9,10,11,29,2,-3,-1,0,1,0,0,2.074,2.818,1.283,0,2,"grøn","13_15",1,0,1,0,"Left_lead","Male","Male","surrender",0.184802137161496,0.1838972640877,1.00492053581267,0.00492053581267227,2,3,-0.306476579428413,0.930503477987786,0.666666666666667,-0.333333333333333
"222","15_2",9,"13_2",9,"13",15,"Male","Male",23,20,"Stim\r03y11g01b26.jpeg","Stim\r01y27g01b01.jpeg",3,1,11,27,1,1,26,1,2,-4,-1,0,0,1,1,1.916,1.762,1.135,0,2,"rød","13_15",-2,0,1,0,"Left_lead","Male","Male","surrender",NA,NA,NA,NA,2,4,-0.306476579428413,2.30603035849147,0.5,-0.5
"223","15_2",92,"13_2",92,"13",15,"Male","Male",23,20,"Stim\r04y39g24b15.jpeg","Stim\r10y27g22b14.jpeg",4,10,39,27,24,22,15,14,-2,3,1,0,1,0,0,2.124,1.487,1.206,0,2,"grøn","13_15",-2,1,0,1,"Left_lead","Male","Male","surrender",0.25124578367162,0.246976151423695,1.0172876296894,0.0172876296893958,2,3,-0.306476579428413,0.930503477987786,0.666666666666667,-0.333333333333333
"224","15_2",94,"13_2",94,"13",15,"Male","Male",23,20,"Stim\r14y20g16b10.jpeg","Stim\r07y06g08b05.jpeg",14,7,20,6,16,8,10,5,-2,2,0,-1,1,0,1,1.814,1.154,0,1.23,2,"grøn","13_15",-8,1,0,0,"Right_lead","Male","Male","surrender",0.284495999861175,0.24741708086235,0.869668047997447,-0.130331952002553,2,2,-0.306476579428413,-0.445023402515898,1,0
"225","15_2",95,"13_2",95,"13",15,"Male","Male",23,20,"Stim\r08y12g20b03.jpeg","Stim\r03y06g12b09.jpeg",8,3,12,6,20,12,3,9,2,-2,0,-1,0,1,1,0.883,0.928,0,1.137,2,"grøn","13_15",-8,0,1,0,"Right_lead","Male","Male","stick",0.30413211165265,0.26917531970125,0.885060502945759,-0.114939497054241,2,2,-0.306476579428413,-0.445023402515898,1,0
"226","16_1",12,"15_1",12,"15",16,"Male","Female",20,21,"Stim\r15y05g12b10.jpeg","Stim\r13y33g08b23.jpeg",15,13,5,33,12,8,10,23,3,-3,1,0,0,1,0,2.038,2.315,3.075,0,1,"rød","15_16",-2,0,1,1,"Left_lead","Male","Female","stick",0.20524012289859,0.20414450920915,1.00536685357683,0.0053668535768332,3,3,0.695968773397057,-0.279950398078262,1,0
"227","16_1",14,"15_1",14,"15",16,"Male","Female",20,21,"Stim\r09y02g05b02.jpeg","Stim\r08y12g20b03.jpeg",9,8,2,12,5,20,2,3,1,-4,0,-1,0,1,1,3.085,1.649,0,2.083,1,"rød","15_16",-1,0,1,0,"Right_lead","Female","Male","stick",0.2280037805696,0.2203671940967,0.966506755046683,-0.0334932449533172,1,4,-1.86812670753947,0.808745594448314,4,3
"228","16_1",15,"15_1",15,"15",16,"Male","Female",20,21,"Stim\r07y14g27b22.jpeg","Stim\r06y19g29b08.jpeg",7,6,14,19,27,29,22,8,-2,2,0,-1,1,0,1,2.527,1.757,0,3.01,1,"rød","15_16",-1,1,0,0,"Right_lead","Female","Male","surrender",0.24529753738994,0.230024565995705,0.937736955875117,-0.0622630441248831,2,2,-0.586078967071206,-1.36864639060484,1,0
"229","16_1",16,"15_1",16,"15",16,"Male","Female",20,21,"Stim\r11y10g06b19.jpeg","Stim\r14y20g16b10.jpeg",11,14,10,20,6,16,19,10,4,-2,0,1,1,0,1,1.654,1.881,0,4.922,1,"rød","15_16",3,0,1,1,"Right_lead","Female","Male","surrender",0.23370316110344,0.22887274958321,0.979330996220064,-0.0206690037799361,4,2,1.97801651386532,-1.36864639060484,0.5,-0.5
"230","16_1",17,"15_1",17,"15",16,"Male","Female",20,21,"Stim\r17y20g40b07.jpeg","Stim\r14y20g16b10.jpeg",17,14,20,20,40,16,7,10,-2,4,1,0,1,0,0,2.774,3.386,1.804,0,1,"rød","15_16",-3,1,0,1,"Left_lead","Male","Female","surrender",0.25500096926113,0.2443837450708,1.04344488700447,0.0434448870044695,2,4,-0.586078967071206,0.808745594448314,0.5,-0.5
"231","16_1",18,"15_1",18,"15",16,"Male","Female",20,21,"Stim\r08y23g10b29.jpeg","Stim\r11y26g25b38.jpeg",8,11,23,26,10,25,29,38,-2,2,-1,0,0,1,0,3.816,3.764,1.897,0,1,"rød","15_16",3,1,0,0,"Left_lead","Male","Female","stick",0.265890172318105,0.24981162817615,1.06436267302424,0.0643626730242419,2,2,-0.586078967071206,-1.36864639060484,1,0
"232","16_1",2,"15_1",2,"15",16,"Male","Female",20,21,"Stim\r14y12g04b29.jpeg","Stim\r17y12g19b18.jpeg",14,17,12,12,4,19,29,18,2,-2,0,-1,1,0,0,6.732,4.094,0,7.105,1,"rød","15_16",3,0,1,0,"Right_lead","Female","Male","stick",NA,NA,NA,NA,2,2,-0.586078967071206,-1.36864639060484,1,0
"233","16_1",23,"15_1",23,"15",16,"Male","Female",20,21,"Stim\r05y28g23b30.jpeg","Stim\r04y39g24b15.jpeg",5,4,28,39,23,24,30,15,-2,2,-1,0,1,0,1,2.831,3.011,6.564,0,1,"rød","15_16",-1,1,0,0,"Left_lead","Male","Female","stick",0.263366128061393,0.256235181909995,1.02782969184108,0.027829691841079,2,2,-0.586078967071206,-1.36864639060484,1,0
"234","16_1",25,"15_1",25,"15",16,"Male","Female",20,21,"Stim\r05y40g33b16.jpeg","Stim\r07y14g27b22.jpeg",5,7,40,14,33,27,16,22,2,-2,0,-1,1,0,0,3.012,2.992,0,3.024,1,"rød","15_16",2,0,1,0,"Right_lead","Female","Male","stick",0.277949405896718,0.26839083086305,0.965610377892947,-0.034389622107053,2,2,-0.586078967071206,-1.36864639060484,1,0
"235","16_1",3,"15_1",3,"15",16,"Male","Female",20,21,"Stim\r21y03g15b37.jpeg","Stim\r18y19g14b27.jpeg",21,18,3,19,15,14,37,27,3,-4,-1,0,0,1,1,3.184,2.747,3.781,0,1,"rød","15_16",-3,0,1,0,"Left_lead","Male","Female","surrender",NA,NA,NA,NA,3,4,0.695968773397057,0.808745594448314,0.75,-0.25
"236","16_1",30,"15_1",30,"15",16,"Male","Female",20,21,"Stim\r06y14g31b25.jpeg","Stim\r20y04g39b23.jpeg",6,20,14,4,31,39,25,23,3,-4,1,0,0,1,0,1.437,1.616,1.698,0,1,"blå","15_16",-2,0,1,1,"Left_lead","Male","Female","stick",0.2604592615045,0.239256642420955,1.08861872702468,0.0886187270246837,3,4,0.695968773397057,0.808745594448314,0.75,-0.25
"237","16_1",32,"15_1",32,"15",16,"Male","Female",20,21,"Stim\r17y07g07b24.jpeg","Stim\r03y11g01b26.jpeg",17,3,7,11,7,1,24,26,-3,4,1,0,0,1,1,2.084,2.362,3.35,0,1,"blå","15_16",2,1,0,1,"Left_lead","Male","Female","surrender",0.27834416389658,0.2311205053712,1.20432483240522,0.204324832405219,3,4,0.695968773397057,0.808745594448314,0.75,-0.25
"238","16_1",35,"15_1",35,"15",16,"Male","Female",20,21,"Stim\r06y36g16b14.jpeg","Stim\r05y40g33b16.jpeg",6,5,36,40,16,33,14,16,4,-4,1,0,1,0,1,1.858,1.571,2.275,0,1,"blå","15_16",2,0,1,1,"Left_lead","Male","Female","stick",0.207837197000715,0.18124017937909,1.14675011751116,0.146750117511159,4,4,1.97801651386532,0.808745594448314,1,0
"239","16_1",36,"15_1",36,"15",16,"Male","Female",20,21,"Stim\r03y11g01b26.jpeg","Stim\r08y23g10b29.jpeg",3,8,11,23,1,10,26,29,-2,4,0,1,0,1,1,1.432,1.294,0,3.94,1,"blå","15_16",3,1,0,1,"Right_lead","Female","Male","stick",0.181203155601165,0.162852067917625,0.898726445338891,-0.101273554661109,2,4,-0.586078967071206,0.808745594448314,2,1
"240","16_1",38,"15_1",38,"15",16,"Male","Female",20,21,"Stim\r08y12g20b03.jpeg","Stim\r10y02g36b05.jpeg",8,10,12,2,20,36,3,5,2,-2,0,1,1,0,1,1.545,4.708,0,2.781,1,"blå","15_16",2,0,1,1,"Right_lead","Female","Male","surrender",0.15405960641596,0.14993516669004,0.97322828597404,-0.0267717140259598,2,2,-0.586078967071206,-1.36864639060484,1,0
"241","16_1",39,"15_1",39,"15",16,"Male","Female",20,21,"Stim\r06y19g29b08.jpeg","Stim\r10y02g36b05.jpeg",6,10,19,2,29,36,8,5,-1,4,1,0,1,0,0,2.299,3.911,2.182,0,1,"blå","15_16",-3,1,0,1,"Left_lead","Male","Female","surrender",0.15497990178631,0.15275398058983,1.01457193578776,0.0145719357877616,1,4,-1.86812670753947,0.808745594448314,0.25,-0.75
"242","16_1",46,"15_1",46,"15",16,"Male","Female",20,21,"Stim\r14y12g04b29.jpeg","Stim\r09y06g26b32.jpeg",14,9,12,6,4,26,29,32,-4,4,0,-1,0,1,0,1.766,2.361,0,5.112,1,"blå","15_16",3,1,0,0,"Right_lead","Female","Male","surrender",0.207349960874975,0.211228275418805,1.0187041971335,0.0187041971335047,4,4,1.97801651386532,0.808745594448314,1,0
"243","16_1",48,"15_1",48,"15",16,"Male","Female",20,21,"Stim\r17y20g40b07.jpeg","Stim\r05y40g33b16.jpeg",17,5,20,40,40,33,7,16,2,-2,1,0,1,0,1,2.028,1.858,2.831,0,1,"blå","15_16",9,0,1,1,"Left_lead","Male","Female","stick",0.1961039473321,0.2067692735974,0.948419191692541,-0.0515808083074589,2,2,-0.586078967071206,-1.36864639060484,1,0
"244","16_1",49,"15_1",49,"15",16,"Male","Female",20,21,"Stim\r10y13g07b36.jpeg","Stim\r21y03g15b37.jpeg",10,21,13,3,7,15,36,37,-3,4,1,0,0,1,1,1.781,1.277,1.639,0,1,"blå","15_16",1,1,0,1,"Left_lead","Male","Female","surrender",0.1924545599725,0.19995299650805,0.962499003933416,-0.0375009960665837,3,4,0.695968773397057,0.808745594448314,0.75,-0.25
"245","16_1",5,"15_1",5,"15",16,"Male","Female",20,21,"Stim\r01y27g01b01.jpeg","Stim\r04y16g13b13.jpeg",1,4,27,16,1,13,1,13,-2,4,1,0,0,1,1,3.65,1.962,2.554,0,1,"rød","15_16",3,1,0,1,"Left_lead","Male","Female","surrender",NA,NA,NA,NA,2,4,-0.586078967071206,0.808745594448314,0.5,-0.5
"246","16_1",57,"15_1",57,"15",16,"Male","Female",20,21,"Stim\r22y23g20b06.jpeg","Stim\r01y27g01b01.jpeg",22,1,23,27,20,1,6,1,-3,4,0,1,0,1,1,2.171,1.249,0,1.813,1,"gul","15_16",4,1,0,1,"Right_lead","Female","Male","stick",0.174942484404722,0.172590990877975,0.986558476434421,-0.0134415235655789,3,4,0.695968773397057,0.808745594448314,1.33333333333333,0.333333333333333
"247","16_1",6,"15_1",6,"15",16,"Male","Female",20,21,"Stim\r16y09g06b10.jpeg","Stim\r17y20g40b07.jpeg",16,17,9,20,6,40,10,7,3,-4,0,1,1,0,1,2.166,2.863,0,3.119,1,"rød","15_16",1,0,1,1,"Right_lead","Female","Male","surrender",NA,NA,NA,NA,3,4,0.695968773397057,0.808745594448314,1.33333333333333,0.333333333333333
"248","16_1",63,"15_1",63,"15",16,"Male","Female",20,21,"Stim\r11y10g06b19.jpeg","Stim\r12y07g07b17.jpeg",11,12,10,7,6,7,19,17,2,-4,-1,0,0,1,1,2.581,1.692,3.593,0,1,"gul","15_16",-3,0,1,0,"Left_lead","Male","Female","surrender",0.253624347574015,0.234397868369635,1.08202497462162,0.0820249746216151,2,4,-0.586078967071206,0.808745594448314,0.5,-0.5
"249","16_1",66,"15_1",66,"15",16,"Male","Female",20,21,"Stim\r16y09g06b10.jpeg","Stim\r12y07g16b25.jpeg",16,12,9,7,6,16,10,25,2,-4,0,-1,0,1,1,2.1,1.429,0,1.483,1,"gul","15_16",-2,0,1,0,"Right_lead","Female","Male","stick",0.24103462749504,0.225137098403,0.934044625632194,-0.065955374367806,2,4,-0.586078967071206,0.808745594448314,2,1
"250","16_1",67,"15_1",67,"15",16,"Male","Female",20,21,"Stim\r17y07g07b24.jpeg","Stim\r08y09g09b11.jpeg",17,8,7,9,7,9,24,11,-3,3,0,-1,0,1,0,1.972,2.418,0,2.447,1,"gul","15_16",2,1,0,0,"Right_lead","Female","Male","surrender",0.26717281148295,0.25123984856644,0.940364579658859,-0.0596354203411406,3,3,0.695968773397057,-0.279950398078262,1,0
"251","16_1",70,"15_1",70,"15",16,"Male","Female",20,21,"Stim\r17y12g19b18.jpeg","Stim\r15y16g12b03.jpeg",17,15,12,16,19,12,18,3,-2,4,0,1,0,1,1,1.787,1.183,0,0.98,1,"gul","15_16",4,1,0,1,"Right_lead","Female","Male","stick",0.215048200137419,0.22277090622176,1.03591151230006,0.0359115123000615,2,4,-0.586078967071206,0.808745594448314,2,1
"252","16_1",71,"15_1",71,"15",16,"Male","Female",20,21,"Stim\r04y39g24b15.jpeg","Stim\r05y40g33b16.jpeg",4,5,39,40,24,33,15,16,-3,4,0,1,0,1,1,1.949,1.23,0,0.847,1,"gul","15_16",1,1,0,1,"Right_lead","Female","Male","stick",0.207189447861325,0.223037241128932,1.07648938414187,0.0764893841418708,3,4,0.695968773397057,0.808745594448314,1.33333333333333,0.333333333333333
"253","16_1",73,"15_1",73,"15",16,"Male","Female",20,21,"Stim\r12y07g07b17.jpeg","Stim\r14y10g15b15.jpeg",12,14,7,10,7,15,17,15,-3,2,0,1,0,1,1,2.238,1.185,0,1.061,1,"gul","15_16",3,1,0,1,"Right_lead","Female","Male","stick",0.201929771303508,0.207566625158516,1.02791492219607,0.0279149221960719,3,2,0.695968773397057,-1.36864639060484,0.666666666666667,-0.333333333333333
"254","16_1",78,"15_1",78,"15",16,"Male","Female",20,21,"Stim\r09y15g18b07.jpeg","Stim\r11y13g22b35.jpeg",9,11,15,13,18,22,7,35,-3,4,0,1,0,1,1,1.685,1.364,0,0.897,1,"grøn","15_16",4,1,0,1,"Right_lead","Female","Male","stick",0.174402757721,0.18942104801281,1.08611268817111,0.0861126881711094,3,4,0.695968773397057,0.808745594448314,1.33333333333333,0.333333333333333
"255","16_1",8,"15_1",8,"15",16,"Male","Female",20,21,"Stim\r11y13g22b35.jpeg","Stim\r14y12g04b29.jpeg",11,14,13,12,22,4,35,29,3,-4,0,1,1,0,1,1.832,1.796,0,2.411,1,"rød","15_16",3,0,1,1,"Right_lead","Female","Male","surrender",NA,NA,NA,NA,3,4,0.695968773397057,0.808745594448314,1.33333333333333,0.333333333333333
"256","16_1",80,"15_1",80,"15",16,"Male","Female",20,21,"Stim\r04y39g24b15.jpeg","Stim\r21y03g15b37.jpeg",4,21,39,3,24,15,15,37,2,-4,-1,0,0,1,1,1.604,1.35,1.796,0,1,"grøn","15_16",-9,0,1,0,"Left_lead","Male","Female","surrender",0.173247445653355,0.19213164006589,0.901712209368229,-0.0982877906317711,2,4,-0.586078967071206,0.808745594448314,0.5,-0.5
"257","16_1",83,"15_1",83,"15",16,"Male","Female",20,21,"Stim\r10y13g07b36.jpeg","Stim\r17y22g16b15.jpeg",10,17,13,22,7,16,36,15,3,-3,0,-1,1,0,0,1.493,1.326,0,1.281,1,"grøn","15_16",9,0,1,0,"Right_lead","Female","Male","stick",0.1733443611548,0.1937244228866,1.11756979919064,0.117569799190642,3,3,0.695968773397057,-0.279950398078262,1,0
"258","16_1",85,"15_1",85,"15",16,"Male","Female",20,21,"Stim\r08y23g10b29.jpeg","Stim\r10y13g07b36.jpeg",8,10,23,13,10,7,29,36,-1,3,1,0,1,0,0,1.666,1.398,1.311,0,1,"grøn","15_16",-3,1,0,1,"Left_lead","Male","Female","surrender",0.16922294901451,0.178853567327828,0.946153613499553,-0.0538463865004474,1,3,-1.86812670753947,-0.279950398078262,0.333333333333333,-0.666666666666667
"259","16_1",88,"15_1",88,"15",16,"Male","Female",20,21,"Stim\r15y05g12b10.jpeg","Stim\r11y14g08b23.jpeg",15,11,5,14,12,8,10,23,2,-2,0,1,0,1,0,1.223,2.016,0,1.64,1,"grøn","15_16",-4,0,1,1,"Right_lead","Female","Male","surrender",0.19522485834268,0.243542453447275,1.24749714516264,0.247497145162645,2,2,-0.586078967071206,-1.36864639060484,1,0
"260","16_1",90,"15_1",90,"15",16,"Male","Female",20,21,"Stim\r12y12g14b26.jpeg","Stim\r12y07g16b25.jpeg",12,12,12,7,14,16,26,25,-2,2,0,-1,0,1,0,2.564,2.026,0,2.528,1,"grøn","15_16",2,1,0,0,"Right_lead","Female","Male","surrender",0.22943505797845,0.2717734190682,1.18453309386452,0.184533093864525,2,2,-0.586078967071206,-1.36864639060484,1,0
"261","16_2",10,"14_2",10,"14",16,"Female","Female",25,21,"Stim\r12y07g16b25.jpeg","Stim\r14y20g16b10.jpeg",12,14,7,20,16,16,25,10,2,-2,1,0,1,0,1,1.182,1.98,1.708,0,2,"rød","14_16",2,0,1,1,"Left_lead","Female","Female","stick",0.23012345393064,0.2272020742563,1.01285806779671,0.012858067796707,2,2,0,-0.450641652993793,1,0
"262","16_2",15,"14_2",15,"14",16,"Female","Female",25,21,"Stim\r11y10g06b19.jpeg","Stim\r10y03g03b07.jpeg",11,10,10,3,6,3,19,7,2,-1,0,1,0,1,0,1.195,2.591,0,1.758,2,"rød","14_16",-1,0,1,1,"Right_lead","Female","Female","surrender",0.23834378771708,0.23443370690975,0.983594786149948,-0.0164052138500517,2,1,0,-1.19420038043355,0.5,-0.5
"263","16_2",18,"14_2",18,"14",16,"Female","Female",25,21,"Stim\r14y10g15b15.jpeg","Stim\r15y05g12b10.jpeg",14,15,10,5,15,12,15,10,-2,4,1,0,0,1,1,1.13,1.328,1.264,0,2,"rød","14_16",1,1,0,1,"Left_lead","Female","Female","surrender",0.266871762494315,0.2512143381194,1.06232695351757,0.0623269535175701,2,4,0,1.03647580188572,0.5,-0.5
"264","16_2",2,"14_2",2,"14",16,"Female","Female",25,21,"Stim\r17y22g16b15.jpeg","Stim\r15y16g12b03.jpeg",17,15,22,16,16,12,15,3,2,-4,-1,0,0,1,1,1.322,1.113,1.97,0,2,"rød","14_16",-2,0,1,0,"Left_lead","Female","Female","surrender",NA,NA,NA,NA,2,4,0,1.03647580188572,0.5,-0.5
"265","16_2",20,"14_2",20,"14",16,"Female","Female",25,21,"Stim\r07y02g03b06.jpeg","Stim\r09y07g06b09.jpeg",7,9,2,7,3,6,6,9,-1,2,0,-1,0,1,0,1.089,2.437,0,2.611,2,"rød","14_16",2,1,0,0,"Right_lead","Female","Female","surrender",0.24209001035645,0.236593921382645,0.977297332650312,-0.022702667349688,1,2,-1.33333333333333,-0.450641652993793,2,1
"266","16_2",24,"14_2",24,"14",16,"Female","Female",25,21,"Stim\r22y02g34b05.jpeg","Stim\r19y10g06b15.jpeg",22,19,2,10,34,6,5,15,-1,4,1,0,1,0,0,3.105,1.634,1.556,0,2,"rød","14_16",-3,1,0,1,"Left_lead","Female","Female","surrender",0.2732642374567,0.26036937316522,1.0495252730178,0.0495252730177962,1,4,-1.33333333333333,1.03647580188572,0.25,-0.75
"267","16_2",3,"14_2",3,"14",16,"Female","Female",25,21,"Stim\r21y03g15b37.jpeg","Stim\r22y35g09b11.jpeg",21,22,3,35,15,9,37,11,2,-2,1,0,1,0,1,1.439,1.969,2.198,0,2,"rød","14_16",1,0,1,1,"Left_lead","Female","Female","stick",NA,NA,NA,NA,2,2,0,-0.450641652993793,1,0
"268","16_2",30,"14_2",30,"14",16,"Female","Female",25,21,"Stim\r03y03g02b05.jpeg","Stim\r17y11g38b07.jpeg",3,17,3,11,2,38,5,7,2,-4,0,-1,1,0,0,1.061,1.507,0,1.464,2,"blå","14_16",2,0,1,0,"Right_lead","Female","Female","stick",0.2496420012604,0.23774669881047,0.952350556437328,-0.0476494435626723,2,4,0,1.03647580188572,2,1
"269","16_2",31,"14_2",31,"14",16,"Female","Female",25,21,"Stim\r06y19g29b08.jpeg","Stim\r18y13g28b06.jpeg",6,18,19,13,29,28,8,6,-1,1,1,0,1,0,0,3.342,1.471,2.048,0,2,"blå","14_16",-2,1,0,1,"Left_lead","Female","Female","surrender",0.225073642902915,0.221836708081665,1.0145915202639,0.0145915202638978,1,1,-1.33333333333333,-1.19420038043355,1,0
"270","16_2",32,"14_2",32,"14",16,"Female","Female",25,21,"Stim\r10y07g11b10.jpeg","Stim\r22y23g20b06.jpeg",10,22,7,23,11,20,10,6,2,-2,0,1,0,1,0,2.647,1.376,0,2.561,2,"blå","14_16",-4,0,1,1,"Right_lead","Female","Female","surrender",0.2318352520599,0.230113082564755,0.992571580551951,-0.00742841944804862,2,2,0,-0.450641652993793,1,0
"271","16_2",33,"14_2",33,"14",16,"Female","Female",25,21,"Stim\r04y39g24b15.jpeg","Stim\r12y07g07b17.jpeg",4,12,39,7,24,7,15,17,-2,1,-1,0,0,1,0,1.144,1.291,1.944,0,2,"blå","14_16",2,1,0,0,"Left_lead","Female","Female","stick",0.221919806026043,0.219295803458934,1.01196558495749,0.0119655849574904,2,1,0,-1.19420038043355,2,1
"272","16_2",34,"14_2",34,"14",16,"Female","Female",25,21,"Stim\r16y09g06b10.jpeg","Stim\r02y10g14b11.jpeg",16,2,9,10,6,14,10,11,2,-4,-1,0,1,0,0,1.045,1.146,1.397,0,2,"blå","14_16",1,0,1,0,"Left_lead","Female","Female","surrender",0.21093585203435,0.2029836584047,1.03917652136211,0.0391765213621051,2,4,0,1.03647580188572,0.5,-0.5
"273","16_2",35,"14_2",35,"14",16,"Female","Female",25,21,"Stim\r05y40g33b16.jpeg","Stim\r17y12g19b18.jpeg",5,17,40,12,33,19,16,18,-2,2,0,-1,0,1,0,1.112,2.324,0,1.463,2,"blå","14_16",2,1,0,0,"Right_lead","Female","Female","surrender",0.18205912816941,0.178751664790724,0.981833026380263,-0.0181669736197371,2,2,0,-0.450641652993793,1,0
"274","16_2",43,"14_2",43,"14",16,"Female","Female",25,21,"Stim\r17y20g40b07.jpeg","Stim\r21y24g16b04.jpeg",17,21,20,24,40,16,7,4,-1,4,1,0,1,0,0,2.155,1.301,1.55,0,2,"blå","14_16",-3,1,0,1,"Left_lead","Female","Female","surrender",0.19747624272085,0.16487575402695,1.19772760941291,0.197727609412911,1,4,-1.33333333333333,1.03647580188572,0.25,-0.75
"275","16_2",44,"14_2",44,"14",16,"Female","Female",25,21,"Stim\r17y07g07b24.jpeg","Stim\r13y24g05b28.jpeg",17,13,7,24,7,5,24,28,-2,4,0,-1,0,1,0,1.18,1.543,0,4.05,2,"blå","14_16",4,1,0,0,"Right_lead","Female","Female","surrender",0.19776716584114,0.17038824270928,0.861559814464588,-0.138440185535412,2,4,0,1.03647580188572,2,1
"276","16_2",45,"14_2",45,"14",16,"Female","Female",25,21,"Stim\r09y07g06b09.jpeg","Stim\r04y28g27b06.jpeg",9,4,7,28,6,27,9,6,2,-4,-1,0,0,1,1,0.974,1.403,1.291,0,2,"blå","14_16",-3,0,1,0,"Left_lead","Female","Female","surrender",0.225763475050025,0.188618149228025,1.19693399587488,0.196933995874883,2,4,0,1.03647580188572,0.5,-0.5
"277","16_2",46,"14_2",46,"14",16,"Female","Female",25,21,"Stim\r11y13g22b35.jpeg","Stim\r14y08g21b39.jpeg",11,14,13,8,22,21,35,39,2,-4,-1,0,1,0,0,1.673,1.198,1.057,0,2,"blå","14_16",4,0,1,0,"Left_lead","Female","Female","surrender",0.22791022438535,0.20082022964778,1.13489674215134,0.134896742151343,2,4,0,1.03647580188572,0.5,-0.5
"278","16_2",48,"14_2",48,"14",16,"Female","Female",25,21,"Stim\r08y23g10b29.jpeg","Stim\r06y14g31b25.jpeg",8,6,23,14,10,31,29,25,-2,4,0,1,1,0,0,1.082,1.096,0,1.68,2,"blå","14_16",-4,1,0,1,"Right_lead","Female","Female","stick",0.22366865425915,0.185273681332,0.828339947524948,-0.171660052475052,2,4,0,1.03647580188572,2,1
"279","16_2",52,"14_2",52,"14",16,"Female","Female",25,21,"Stim\r15y05g12b10.jpeg","Stim\r12y07g07b17.jpeg",15,12,5,7,12,7,10,17,-2,4,1,0,0,1,1,1.453,1.882,1.231,0,2,"gul","14_16",2,1,0,1,"Left_lead","Female","Female","surrender",0.202050073806955,0.162114734850105,1.24633997023019,0.24633997023019,2,4,0,1.03647580188572,0.5,-0.5
"280","16_2",53,"14_2",53,"14",16,"Female","Female",25,21,"Stim\r14y10g15b15.jpeg","Stim\r08y09g09b11.jpeg",14,8,10,9,15,9,15,11,-2,2,-1,0,1,0,1,1.584,1.913,1.76,0,2,"gul","14_16",-1,1,0,0,"Left_lead","Female","Female","stick",0.201025822681436,0.17035479405166,1.18004206339198,0.180042063391976,2,2,0,-0.450641652993793,1,0
"281","16_2",57,"14_2",57,"14",16,"Female","Female",25,21,"Stim\r20y14g02b19.jpeg","Stim\r02y10g14b11.jpeg",20,2,14,10,2,14,19,11,-1,2,1,0,1,0,0,1.582,0.961,2.166,0,2,"gul","14_16",-4,1,0,1,"Left_lead","Female","Female","surrender",0.191226034987871,0.16889066943661,1.13224748072684,0.132247480726839,1,2,-1.33333333333333,-0.450641652993793,0.5,-0.5
"282","16_2",62,"14_2",62,"14",16,"Female","Female",25,21,"Stim\r13y21g23b09.jpeg","Stim\r17y20g40b07.jpeg",13,17,21,20,23,40,9,7,3,-4,0,-1,0,1,1,1.065,1.191,0,1.171,2,"gul","14_16",-1,0,1,0,"Right_lead","Female","Female","stick",0.26053635452615,0.21648877894475,0.830935012269165,-0.169064987730835,3,4,1.33333333333333,1.03647580188572,1.33333333333333,0.333333333333333
"283","16_2",64,"14_2",64,"14",16,"Female","Female",25,21,"Stim\r16y09g06b10.jpeg","Stim\r11y10g06b19.jpeg",16,11,9,10,6,6,10,19,3,-1,0,1,1,0,1,1.455,1.535,0,1.608,2,"gul","14_16",1,0,1,1,"Right_lead","Female","Female","surrender",0.31677083331465,0.24428465708395,0.771171558087549,-0.228828441912451,3,1,1.33333333333333,-1.19420038043355,0.333333333333333,-0.666666666666667
"284","16_2",66,"14_2",66,"14",16,"Female","Female",25,21,"Stim\r17y12g19b18.jpeg","Stim\r12y09g30b18.jpeg",17,12,12,9,19,30,18,18,-2,1,0,-1,1,0,1,1.7,1.497,0,1.216,2,"gul","14_16",-3,1,0,0,"Right_lead","Female","Female","surrender",0.26780849193585,0.223943057709516,0.836205962293229,-0.163794037706771,2,1,0,-1.19420038043355,0.5,-0.5
"285","16_2",69,"14_2",69,"14",16,"Female","Female",25,21,"Stim\r10y27g22b14.jpeg","Stim\r11y26g25b38.jpeg",10,11,27,26,22,25,14,38,-3,4,1,0,1,0,0,1.011,4.958,1.715,0,2,"gul","14_16",-1,1,0,1,"Left_lead","Female","Female","surrender",0.25471070935375,0.2288951202034,1.11278348410141,0.112783484101408,3,4,1.33333333333333,1.03647580188572,0.75,-0.25
"286","16_2",74,"14_2",74,"14",16,"Female","Female",25,21,"Stim\r10y13g07b36.jpeg","Stim\r08y23g10b29.jpeg",10,8,13,23,7,10,36,29,2,-1,-1,0,1,0,0,2.951,1.53,1.3,0,2,"grøn","14_16",3,0,1,0,"Left_lead","Female","Female","surrender",0.204311543975657,0.201734881709755,1.01277251729629,0.0127725172962858,2,1,0,-1.19420038043355,2,1
"287","16_2",77,"14_2",77,"14",16,"Female","Female",25,21,"Stim\r04y16g13b13.jpeg","Stim\r14y20g16b10.jpeg",4,14,16,20,13,16,13,10,2,-2,0,1,1,0,1,1.337,1.382,0,2.717,2,"grøn","14_16",3,0,1,1,"Right_lead","Female","Female","surrender",0.185895913017174,0.188875145364073,1.01602634667188,0.0160263466718806,2,2,0,-0.450641652993793,1,0
"288","16_2",78,"14_2",78,"14",16,"Female","Female",25,21,"Stim\r20y04g39b23.jpeg","Stim\r17y20g40b07.jpeg",20,17,4,20,39,40,23,7,2,-4,0,-1,1,0,0,1.331,1.211,0,0.755,2,"grøn","14_16",1,0,1,0,"Right_lead","Female","Female","stick",0.1819283683684,0.18690463140751,1.02735287016389,0.0273528701638943,2,4,0,1.03647580188572,2,1
"289","16_2",83,"14_2",83,"14",16,"Female","Female",25,21,"Stim\r12y07g16b25.jpeg","Stim\r02y10g14b11.jpeg",12,2,7,10,16,14,25,11,-4,1,-1,0,1,0,1,1.805,1.9,1.516,0,2,"grøn","14_16",-2,1,0,0,"Left_lead","Female","Female","stick",0.167654996329655,0.193009449834985,0.868636206532856,-0.131363793467144,4,1,2.66666666666667,-1.19420038043355,4,3
"290","16_2",84,"14_2",84,"14",16,"Female","Female",25,21,"Stim\r22y35g09b11.jpeg","Stim\r15y05g12b10.jpeg",22,15,35,5,9,12,11,10,-2,1,0,1,0,1,1,1.595,0.908,0,3.28,2,"grøn","14_16",3,1,0,1,"Right_lead","Female","Female","stick",0.177037453771065,0.194995171066175,1.10143456603444,0.101434566034439,2,1,0,-1.19420038043355,0.5,-0.5
"291","16_2",89,"14_2",89,"14",16,"Female","Female",25,21,"Stim\r13y24g05b28.jpeg","Stim\r11y14g08b23.jpeg",13,11,24,14,5,8,28,23,-4,1,0,-1,0,1,0,1.646,1.975,0,1.164,2,"grøn","14_16",3,1,0,0,"Right_lead","Female","Female","surrender",0.27101148613965,0.243523326231925,0.898571974570994,-0.101428025429006,4,1,2.66666666666667,-1.19420038043355,0.25,-0.75
"292","16_2",9,"14_2",9,"14",16,"Female","Female",25,21,"Stim\r03y03g02b05.jpeg","Stim\r07y14g27b22.jpeg",3,7,3,14,2,27,5,22,-1,4,1,0,0,1,1,2.012,2.224,1.48,0,2,"rød","14_16",4,1,0,1,"Left_lead","Female","Female","surrender",NA,NA,NA,NA,1,4,-1.33333333333333,1.03647580188572,0.25,-0.75
"293","16_2",95,"14_2",95,"14",16,"Female","Female",25,21,"Stim\r09y07g06b09.jpeg","Stim\r08y23g10b29.jpeg",9,8,7,23,6,10,9,29,-1,1,1,0,0,1,1,2.323,1.165,2.012,0,2,"grøn","14_16",4,1,0,1,"Left_lead","Female","Female","surrender",0.28612365656135,0.27052717938707,1.05765216348914,0.0576521634891429,1,1,-1.33333333333333,-1.19420038043355,1,0
